File: data/exp_raw/ADM6005a spectra/ADM-6005a_13.msa
#FORMAT      : EMSA/MAS Spectral Data File
#VERSION     : 1.0
#TITLE       : Bruker Nano spectrum Acquisition
#DATE        : 12-JUL-2019
#TIME        : 10:06
#OWNER       : Bruker Nano
#NPOINTS     : 4096
#NCOLUMNS    : 1
#XUNITS      : eV
#YUNITS      : counts
#DATATYPE    : Y
#XPERCHAN    : 5.01716
#OFFSET      : -484.208
#BEAMKV      : 20
#SIGNALTYPE  : EDS
#ELEVANGLE   : 40
#AZIMANGLE   : 45
#LIVETIME    : 100.001
#REALTIME    : 112.093
#PROBECUR    : 5
#TAUWIND     : 0
#TDEADLYR    : 0
#TACTLYR     : 0.045
#TALWIND     : 0.004
#CHOFFSET    : 0.0
#XLABEL      : Energy (eV)
#YLABEL      : Counts
#EDSDET      : SDUTW
##DET_HASH   : c6370f9e-cc72-7559-f57e-203d75c8942b
##CALIB_HASH : b2d706fe-df19-4747-f399-990df6ef62be
##SAMPLE     : <BulkSample id="1">\n<mOrientation id="2">\n<double>0.0</double>\n<double>0.0</double>\n<double>-1.0</double>\n</mOrientation>\n</BulkSample>
#SPECTRUM    :
0,
0,
0,
0,
0,
0,
0,
0,
0,
0,
0,
0,
0,
0,
0,
0,
0,
0,
2,
6,
6,
9,
11,
10,
9,
12,
11,
122,
1481,
11130,
46521,
105768,
128172,
84803,
30342,
5904,
697,
48,
13,
0,
35,
283,
275,
252,
291,
348,
423,
667,
1125,
2009,
2629,
2511,
1696,
943,
623,
616,
717,
871,
954,
1028,
1126,
1404,
2005,
3723,
8447,
17376,
27610,
30940,
24634,
13683,
5379,
1914,
898,
745,
759,
815,
857,
876,
1067,
1088,
1070,
1170,
1223,
1275,
1373,
1487,
1525,
1775,
2117,
2327,
2686,
2925,
2821,
2786,
2809,
3530,
5567,
10172,
16302,
22134,
24203,
21449,
16121,
10683,
6670,
4831,
4978,
7909,
15458,
28282,
44209,
56102,
58246,
49670,
35733,
22034,
12257,
6515,
3883,
2792,
2279,
1879,
1778,
1708,
1740,
1985,
2543,
4462,
7982,
12644,
16703,
18591,
16884,
12851,
8242,
5025,
3229,
2308,
1916,
1729,
1639,
1810,
2022,
2860,
4450,
6989,
10094,
12587,
13214,
11859,
9118,
6200,
4114,
2993,
2464,
2209,
1984,
1923,
1787,
1715,
1631,
1660,
1701,
1754,
1752,
1753,
1713,
1733,
1739,
1722,
1763,
1730,
1704,
1774,
1771,
1769,
1777,
1779,
1789,
1737,
1768,
1776,
1786,
1735,
1713,
1744,
1781,
1768,
1745,
1796,
1771,
1780,
1726,
1748,
1748,
1788,
1734,
1710,
1756,
1775,
1781,
1793,
1805,
1789,
1713,
1758,
1821,
1764,
1777,
1757,
1765,
1777,
1728,
1739,
1747,
1729,
1819,
1716,
1774,
1719,
1697,
1768,
1683,
1673,
1687,
1706,
1680,
1681,
1683,
1650,
1671,
1668,
1692,
1622,
1653,
1642,
1689,
1623,
1668,
1575,
1647,
1580,
1677,
1584,
1541,
1571,
1572,
1554,
1622,
1538,
1592,
1577,
1580,
1569,
1548,
1538,
1562,
1568,
1505,
1500,
1526,
1471,
1495,
1501,
1518,
1511,
1542,
1537,
1643,
1819,
2178,
2977,
4407,
6419,
9349,
12702,
15916,
17810,
18038,
16382,
13472,
9979,
6781,
4503,
2899,
2122,
1742,
1535,
1416,
1405,
1426,
1442,
1540,
1743,
1922,
2238,
2626,
2898,
3206,
3380,
3169,
2872,
2476,
2152,
1750,
1533,
1394,
1325,
1268,
1267,
1227,
1220,
1222,
1208,
1210,
1206,
1197,
1205,
1201,
1229,
1234,
1217,
1295,
1441,
1803,
2324,
3334,
4585,
6614,
8920,
10918,
12467,
13038,
12257,
10715,
8531,
6399,
4461,
3028,
2155,
1611,
1295,
1135,
1124,
1040,
1132,
1045,
1044,
1075,
1084,
1111,
1084,
1157,
1232,
1399,
1558,
1785,
2010,
2248,
2418,
2455,
2441,
2231,
1980,
1772,
1452,
1252,
1157,
1075,
1009,
905,
930,
1027,
887,
906,
939,
929,
882,
912,
907,
875,
843,
896,
893,
887,
901,
959,
848,
843,
840,
891,
847,
906,
862,
863,
825,
838,
823,
804,
810,
835,
809,
851,
861,
846,
805,
874,
828,
793,
791,
792,
809,
813,
797,
784,
810,
778,
773,
769,
781,
779,
788,
788,
781,
791,
785,
769,
770,
789,
768,
766,
752,
746,
748,
749,
742,
739,
746,
734,
736,
734,
711,
742,
712,
706,
736,
699,
699,
717,
772,
671,
692,
723,
732,
725,
708,
726,
741,
719,
689,
743,
704,
692,
685,
682,
662,
660,
686,
648,
696,
684,
686,
692,
617,
613,
613,
623,
672,
644,
651,
597,
638,
641,
652,
608,
619,
611,
627,
636,
627,
623,
647,
610,
587,
664,
589,
564,
593,
586,
567,
557,
566,
557,
577,
584,
614,
568,
572,
554,
575,
554,
563,
571,
631,
523,
558,
579,
580,
531,
544,
520,
554,
573,
513,
609,
565,
562,
585,
558,
602,
584,
554,
549,
581,
561,
522,
486,
509,
524,
544,
490,
500,
521,
485,
494,
524,
510,
498,
470,
504,
507,
497,
494,
480,
491,
511,
514,
559,
464,
498,
501,
471,
444,
481,
492,
497,
421,
486,
478,
450,
506,
461,
482,
479,
492,
473,
441,
461,
461,
458,
439,
457,
463,
482,
472,
446,
470,
437,
475,
458,
479,
449,
477,
503,
574,
684,
879,
1017,
1325,
1886,
2453,
2920,
3684,
4262,
4720,
5027,
5108,
4790,
4258,
3776,
3107,
2602,
1927,
1459,
1124,
890,
721,
544,
454,
493,
408,
446,
415,
382,
394,
391,
375,
369,
385,
386,
383,
394,
367,
387,
418,
412,
385,
385,
371,
360,
401,
384,
357,
347,
360,
407,
395,
374,
370,
404,
345,
380,
389,
372,
373,
370,
396,
421,
412,
483,
485,
542,
665,
688,
814,
839,
917,
935,
990,
886,
931,
839,
774,
716,
659,
653,
656,
784,
957,
1214,
1740,
2260,
2969,
3813,
4354,
5362,
5919,
6679,
6805,
6673,
6433,
5780,
5086,
4170,
3404,
2489,
1855,
1391,
1030,
741,
544,
401,
409,
365,
350,
305,
271,
306,
281,
315,
282,
293,
277,
268,
300,
311,
296,
289,
283,
274,
291,
275,
282,
287,
281,
288,
261,
279,
260,
297,
261,
282,
270,
282,
271,
260,
256,
292,
291,
263,
256,
261,
242,
271,
264,
256,
267,
309,
273,
304,
309,
345,
397,
462,
520,
590,
706,
797,
894,
1013,
1058,
1109,
1104,
1108,
1068,
963,
867,
642,
583,
538,
432,
383,
301,
287,
280,
253,
250,
241,
188,
217,
229,
222,
181,
203,
231,
217,
223,
195,
202,
215,
230,
195,
234,
215,
230,
194,
198,
223,
184,
188,
220,
197,
211,
185,
189,
195,
197,
194,
207,
195,
184,
193,
191,
182,
206,
191,
182,
190,
208,
177,
178,
156,
169,
167,
183,
178,
193,
165,
167,
184,
187,
175,
156,
178,
170,
176,
177,
182,
172,
165,
181,
179,
177,
164,
177,
150,
179,
161,
143,
176,
163,
157,
153,
174,
143,
154,
157,
156,
162,
176,
165,
148,
155,
152,
157,
157,
165,
143,
181,
154,
145,
142,
151,
132,
145,
152,
138,
148,
139,
164,
146,
140,
162,
155,
149,
122,
145,
152,
115,
139,
150,
137,
133,
142,
126,
134,
123,
137,
129,
135,
127,
123,
143,
142,
126,
119,
134,
120,
131,
118,
115,
128,
100,
127,
135,
126,
118,
118,
114,
116,
119,
108,
110,
128,
112,
128,
127,
94,
112,
121,
106,
105,
120,
113,
98,
104,
106,
97,
94,
135,
103,
99,
111,
91,
106,
101,
78,
97,
104,
93,
120,
125,
112,
102,
141,
123,
95,
95,
103,
91,
89,
99,
112,
113,
89,
93,
106,
98,
86,
108,
104,
85,
80,
97,
95,
115,
82,
85,
87,
110,
95,
88,
88,
100,
85,
99,
71,
88,
87,
94,
91,
96,
84,
84,
76,
87,
89,
80,
60,
66,
88,
80,
72,
87,
86,
67,
78,
82,
77,
69,
74,
75,
75,
73,
63,
63,
75,
69,
62,
59,
63,
75,
85,
66,
66,
66,
62,
65,
67,
62,
58,
84,
61,
56,
71,
83,
70,
58,
68,
68,
57,
63,
61,
62,
72,
53,
50,
60,
58,
55,
57,
58,
58,
65,
48,
54,
56,
54,
48,
54,
53,
53,
49,
55,
58,
57,
63,
63,
48,
61,
61,
51,
51,
47,
56,
64,
54,
57,
51,
48,
45,
60,
39,
40,
60,
38,
49,
39,
52,
43,
42,
43,
47,
46,
42,
37,
48,
49,
45,
44,
46,
54,
46,
49,
56,
54,
33,
43,
43,
39,
41,
44,
42,
35,
30,
30,
37,
33,
39,
31,
41,
40,
29,
46,
41,
30,
29,
36,
25,
39,
30,
38,
34,
38,
37,
26,
37,
37,
37,
33,
27,
43,
29,
21,
36,
27,
33,
27,
28,
29,
41,
21,
30,
34,
31,
28,
15,
26,
26,
34,
24,
34,
19,
23,
26,
30,
20,
41,
22,
18,
31,
34,
26,
30,
25,
20,
20,
32,
25,
19,
29,
24,
29,
16,
16,
30,
26,
23,
16,
19,
18,
17,
28,
20,
25,
17,
16,
28,
23,
13,
23,
15,
15,
22,
19,
9,
25,
19,
14,
15,
19,
19,
24,
15,
13,
25,
22,
18,
25,
18,
17,
23,
14,
18,
14,
10,
10,
21,
20,
13,
14,
11,
18,
11,
14,
22,
10,
13,
19,
13,
18,
12,
11,
17,
10,
13,
18,
10,
9,
16,
15,
14,
16,
8,
16,
12,
15,
13,
9,
10,
13,
14,
6,
16,
14,
3,
14,
8,
18,
11,
5,
8,
7,
9,
5,
6,
8,
12,
8,
9,
10,
7,
7,
11,
11,
5,
7,
8,
4,
7,
10,
9,
9,
5,
1,
11,
9,
5,
7,
2,
2,
5,
3,
9,
6,
8,
7,
3,
7,
2,
6,
7,
7,
11,
3,
6,
4,
6,
3,
0,
6,
0,
2,
10,
4,
1,
3,
2,
4,
0,
7,
2,
1,
1,
5,
0,
1,
0,
2,
3,
3,
0,
0,
1,
0,
0,
0,
0,
0,
3,
0,
0,
0,
0,
0,
4,
0,
0,
1,
0,
0,
0,
0,
2,
0,
0,
#ENDOFDATA   :