File: data/exp_raw/ADM6005a spectra/ADM-6005a_10.msa
#FORMAT      : EMSA/MAS Spectral Data File
#VERSION     : 1.0
#TITLE       : Bruker Nano spectrum Acquisition
#DATE        : 12-JUL-2019
#TIME        : 09:59
#OWNER       : Bruker Nano
#NPOINTS     : 4096
#NCOLUMNS    : 1
#XUNITS      : eV
#YUNITS      : counts
#DATATYPE    : Y
#XPERCHAN    : 5.01716
#OFFSET      : -484.208
#BEAMKV      : 20
#SIGNALTYPE  : EDS
#ELEVANGLE   : 40
#AZIMANGLE   : 45
#LIVETIME    : 100
#REALTIME    : 112.111
#PROBECUR    : 5
#TAUWIND     : 0
#TDEADLYR    : 0
#TACTLYR     : 0.045
#TALWIND     : 0.004
#CHOFFSET    : 0.0
#XLABEL      : Energy (eV)
#YLABEL      : Counts
#EDSDET      : SDUTW
##DET_HASH   : c6370f9e-cc72-7559-f57e-203d75c8942b
##CALIB_HASH : b2d706fe-df19-4747-f399-990df6ef62be
##SAMPLE     : <BulkSample id="1">\n<mOrientation id="2">\n<double>0.0</double>\n<double>0.0</double>\n<double>-1.0</double>\n</mOrientation>\n</BulkSample>
#SPECTRUM    :
0,
0,
0,
0,
0,
0,
0,
0,
0,
0,
0,
0,
0,
0,
0,
0,
0,
0,
1,
7,
4,
12,
12,
9,
6,
14,
19,
128,
1493,
11206,
46679,
104831,
128480,
84884,
30323,
6031,
694,
66,
12,
3,
29,
313,
254,
232,
322,
325,
438,
652,
1149,
1998,
2656,
2549,
1637,
913,
569,
589,
701,
844,
967,
1102,
1125,
1408,
1999,
3758,
8379,
17298,
27215,
30974,
24562,
13539,
5504,
1843,
943,
782,
751,
781,
804,
939,
1074,
1089,
1145,
1144,
1276,
1299,
1335,
1351,
1544,
1702,
1975,
2361,
2599,
2881,
2861,
2771,
2874,
3579,
5706,
10128,
16459,
21865,
23948,
21530,
16216,
10650,
6650,
4909,
4954,
8090,
15379,
28601,
44132,
56047,
58081,
49726,
36084,
22212,
12218,
6420,
3938,
2725,
2232,
1836,
1672,
1648,
1692,
2000,
2735,
4479,
7919,
12551,
16956,
18687,
16990,
12692,
8181,
4995,
3181,
2324,
1962,
1759,
1718,
1828,
2061,
2755,
4397,
7032,
10086,
12565,
13319,
11870,
9105,
6250,
4094,
2932,
2457,
2220,
2086,
1838,
1734,
1770,
1651,
1685,
1710,
1729,
1762,
1763,
1736,
1711,
1717,
1757,
1767,
1705,
1735,
1716,
1746,
1769,
1760,
1773,
1766,
1761,
1741,
1752,
1759,
1741,
1741,
1761,
1761,
1806,
1760,
1747,
1766,
1772,
1801,
1773,
1695,
1731,
1741,
1756,
1761,
1843,
1781,
1801,
1793,
1777,
1811,
1814,
1751,
1740,
1762,
1801,
1736,
1751,
1734,
1708,
1730,
1738,
1677,
1729,
1731,
1708,
1717,
1758,
1712,
1711,
1671,
1690,
1733,
1695,
1689,
1633,
1675,
1686,
1721,
1680,
1702,
1628,
1604,
1672,
1605,
1601,
1591,
1652,
1605,
1707,
1591,
1649,
1646,
1533,
1588,
1607,
1597,
1573,
1563,
1577,
1553,
1589,
1571,
1544,
1562,
1556,
1555,
1496,
1546,
1513,
1503,
1498,
1568,
1552,
1589,
1813,
2185,
2900,
4260,
6434,
9518,
12758,
15821,
17637,
17910,
16130,
13344,
9851,
6818,
4550,
3117,
2196,
1741,
1443,
1472,
1461,
1391,
1507,
1582,
1657,
1945,
2289,
2646,
2933,
3301,
3265,
3240,
2966,
2517,
2202,
1818,
1565,
1385,
1360,
1264,
1237,
1250,
1212,
1238,
1212,
1208,
1230,
1210,
1217,
1185,
1218,
1217,
1215,
1246,
1432,
1803,
2341,
3278,
4819,
6743,
8885,
10943,
12249,
12974,
12311,
10630,
8593,
6184,
4393,
3076,
2138,
1550,
1362,
1190,
1104,
1103,
1029,
1046,
1067,
1085,
1052,
1102,
1132,
1154,
1303,
1390,
1543,
1777,
2018,
2278,
2415,
2423,
2389,
2240,
2029,
1743,
1417,
1328,
1117,
1038,
946,
894,
901,
929,
908,
898,
880,
833,
869,
900,
907,
878,
878,
958,
875,
855,
930,
882,
888,
896,
917,
884,
910,
842,
840,
881,
829,
883,
865,
841,
823,
814,
856,
830,
857,
830,
829,
823,
775,
774,
816,
788,
799,
791,
826,
819,
777,
783,
781,
802,
787,
791,
787,
778,
767,
754,
723,
744,
770,
755,
724,
725,
727,
722,
762,
744,
709,
726,
712,
721,
721,
693,
686,
756,
727,
698,
727,
741,
704,
661,
744,
679,
698,
697,
729,
714,
691,
682,
725,
696,
720,
686,
640,
705,
697,
633,
690,
665,
692,
666,
644,
690,
632,
664,
658,
685,
670,
667,
633,
671,
597,
613,
633,
643,
588,
608,
628,
621,
602,
600,
633,
653,
623,
610,
634,
599,
584,
631,
574,
622,
606,
625,
586,
559,
598,
608,
595,
576,
566,
569,
576,
554,
561,
572,
588,
537,
543,
565,
592,
575,
575,
555,
548,
533,
606,
570,
575,
601,
584,
569,
630,
568,
533,
544,
556,
536,
534,
503,
547,
491,
562,
519,
531,
489,
535,
494,
516,
525,
483,
508,
500,
521,
490,
516,
543,
546,
508,
482,
498,
476,
498,
501,
470,
516,
484,
486,
498,
466,
472,
433,
507,
476,
493,
475,
438,
460,
487,
460,
460,
500,
453,
475,
451,
491,
455,
419,
433,
429,
447,
430,
468,
453,
456,
500,
506,
569,
630,
843,
1036,
1375,
1857,
2369,
2895,
3619,
4248,
4653,
5016,
5100,
4764,
4370,
3902,
3195,
2479,
2007,
1493,
1067,
878,
690,
573,
499,
470,
427,
424,
392,
378,
428,
440,
369,
365,
376,
415,
405,
365,
379,
374,
383,
388,
369,
373,
366,
370,
392,
376,
386,
386,
351,
395,
415,
368,
376,
396,
352,
351,
385,
384,
395,
406,
400,
372,
430,
471,
497,
515,
594,
702,
792,
869,
959,
932,
985,
971,
918,
811,
778,
696,
642,
640,
657,
829,
954,
1309,
1700,
2248,
2902,
3869,
4631,
5307,
6052,
6531,
6855,
6653,
6374,
5685,
4997,
4156,
3262,
2481,
1821,
1343,
1007,
753,
562,
451,
416,
333,
341,
321,
276,
290,
303,
271,
328,
311,
307,
301,
297,
303,
282,
286,
302,
281,
282,
265,
271,
271,
261,
283,
284,
311,
275,
291,
288,
280,
256,
309,
282,
257,
267,
249,
257,
270,
284,
253,
249,
295,
291,
268,
307,
287,
276,
287,
306,
364,
409,
416,
511,
555,
701,
795,
868,
1018,
1022,
1091,
1107,
1089,
978,
913,
814,
719,
601,
505,
398,
385,
328,
300,
269,
247,
248,
248,
232,
202,
196,
222,
214,
214,
198,
193,
202,
207,
206,
243,
190,
211,
216,
208,
194,
191,
180,
169,
177,
202,
175,
179,
203,
207,
221,
194,
176,
182,
184,
201,
184,
205,
193,
177,
213,
188,
181,
184,
213,
188,
176,
185,
184,
176,
159,
179,
183,
180,
168,
180,
185,
181,
176,
205,
168,
184,
180,
176,
155,
157,
164,
168,
154,
189,
164,
164,
166,
168,
148,
162,
143,
144,
178,
154,
147,
172,
176,
162,
151,
150,
152,
166,
138,
150,
165,
160,
135,
162,
143,
161,
149,
148,
166,
129,
144,
165,
153,
155,
146,
117,
118,
143,
120,
172,
131,
141,
163,
123,
144,
151,
130,
133,
119,
136,
125,
120,
97,
139,
144,
136,
120,
155,
119,
125,
105,
122,
121,
126,
126,
114,
124,
116,
130,
120,
130,
107,
115,
109,
138,
141,
121,
106,
117,
118,
118,
137,
123,
128,
111,
108,
95,
132,
125,
127,
116,
110,
111,
98,
117,
103,
88,
95,
123,
104,
113,
95,
109,
106,
105,
115,
107,
100,
102,
88,
100,
94,
89,
85,
86,
114,
102,
105,
103,
92,
102,
89,
97,
90,
102,
99,
106,
93,
96,
81,
87,
104,
88,
83,
79,
94,
89,
102,
90,
72,
74,
80,
89,
85,
76,
81,
78,
79,
76,
77,
91,
92,
82,
83,
83,
84,
61,
74,
81,
96,
79,
69,
73,
81,
74,
91,
74,
71,
64,
75,
84,
77,
82,
61,
74,
80,
70,
66,
57,
74,
72,
77,
71,
73,
66,
75,
70,
73,
67,
62,
66,
65,
71,
69,
66,
66,
62,
67,
51,
67,
58,
55,
61,
73,
70,
57,
60,
66,
76,
65,
60,
59,
64,
62,
47,
57,
49,
75,
57,
49,
73,
65,
56,
56,
55,
44,
38,
54,
58,
46,
50,
50,
51,
43,
55,
58,
37,
45,
41,
59,
40,
58,
44,
23,
35,
47,
52,
44,
45,
46,
51,
53,
51,
54,
46,
45,
45,
46,
30,
48,
41,
29,
47,
36,
41,
46,
44,
38,
39,
34,
37,
46,
43,
38,
39,
36,
40,
26,
45,
39,
35,
29,
42,
51,
34,
39,
35,
38,
40,
32,
34,
44,
40,
41,
43,
35,
31,
21,
33,
30,
24,
24,
27,
35,
23,
37,
32,
32,
45,
23,
33,
28,
36,
24,
34,
34,
30,
32,
24,
25,
24,
28,
29,
32,
25,
22,
19,
26,
22,
21,
18,
21,
25,
26,
32,
23,
24,
26,
19,
21,
22,
23,
20,
26,
22,
29,
20,
24,
18,
26,
24,
23,
30,
23,
19,
18,
17,
19,
16,
28,
15,
14,
18,
20,
20,
30,
21,
28,
14,
22,
14,
11,
18,
21,
15,
14,
17,
15,
15,
16,
20,
16,
12,
16,
19,
14,
17,
14,
15,
13,
10,
12,
4,
16,
17,
14,
14,
7,
9,
13,
14,
14,
13,
22,
12,
10,
13,
7,
14,
9,
9,
5,
14,
13,
6,
4,
8,
5,
7,
12,
13,
11,
12,
10,
10,
12,
6,
10,
10,
9,
6,
10,
10,
12,
10,
10,
6,
5,
9,
4,
6,
7,
7,
10,
12,
4,
8,
12,
7,
9,
3,
4,
9,
8,
8,
7,
1,
2,
5,
4,
3,
7,
5,
7,
4,
3,
5,
5,
3,
3,
7,
0,
3,
5,
3,
3,
5,
3,
1,
3,
3,
5,
2,
5,
2,
5,
1,
6,
3,
2,
0,
5,
2,
1,
0,
0,
5,
1,
0,
0,
0,
0,
0,
0,
4,
1,
0,
2,
0,
1,
0,
2,
0,
0,
1,
2,
0,
0,
1,
0,
0,
0,
#ENDOFDATA   :