File: data/exp_raw/ADM6005a spectra/ADM-6005a_12.msa
#FORMAT      : EMSA/MAS Spectral Data File
#VERSION     : 1.0
#TITLE       : Bruker Nano spectrum Acquisition
#DATE        : 12-JUL-2019
#TIME        : 10:04
#OWNER       : Bruker Nano
#NPOINTS     : 4096
#NCOLUMNS    : 1
#XUNITS      : eV
#YUNITS      : counts
#DATATYPE    : Y
#XPERCHAN    : 5.01716
#OFFSET      : -484.208
#BEAMKV      : 20
#SIGNALTYPE  : EDS
#ELEVANGLE   : 40
#AZIMANGLE   : 45
#LIVETIME    : 100.001
#REALTIME    : 112.145
#PROBECUR    : 5
#TAUWIND     : 0
#TDEADLYR    : 0
#TACTLYR     : 0.045
#TALWIND     : 0.004
#CHOFFSET    : 0.0
#XLABEL      : Energy (eV)
#YLABEL      : Counts
#EDSDET      : SDUTW
##DET_HASH   : c6370f9e-cc72-7559-f57e-203d75c8942b
##CALIB_HASH : b2d706fe-df19-4747-f399-990df6ef62be
##SAMPLE     : <BulkSample id="1">\n<mOrientation id="2">\n<double>0.0</double>\n<double>0.0</double>\n<double>-1.0</double>\n</mOrientation>\n</BulkSample>
#SPECTRUM    :
0,
0,
0,
0,
0,
0,
0,
0,
0,
0,
0,
0,
0,
0,
0,
0,
0,
0,
5,
4,
8,
9,
7,
10,
9,
9,
6,
111,
1485,
10982,
46096,
106362,
128840,
84517,
30056,
6058,
706,
70,
13,
0,
26,
287,
256,
264,
278,
354,
414,
679,
1205,
1981,
2694,
2536,
1670,
943,
617,
584,
710,
892,
980,
1031,
1136,
1439,
1943,
3738,
8387,
17585,
27614,
30759,
24506,
13500,
5437,
1925,
893,
773,
764,
812,
920,
938,
1011,
1068,
1175,
1195,
1227,
1304,
1321,
1401,
1594,
1650,
2034,
2268,
2719,
2850,
2927,
2708,
2859,
3682,
5876,
10067,
16252,
21943,
23973,
21411,
16147,
10645,
6713,
4903,
5010,
7989,
15342,
28591,
44154,
56349,
57920,
49761,
36150,
22007,
11997,
6454,
3809,
2742,
2268,
1884,
1765,
1753,
1757,
1964,
2748,
4455,
7863,
12545,
16979,
18579,
16899,
12732,
8260,
5062,
3174,
2341,
1951,
1776,
1695,
1844,
2061,
2841,
4384,
7026,
10137,
12678,
13379,
11834,
9048,
6113,
4151,
2996,
2448,
2121,
2004,
1844,
1734,
1743,
1600,
1643,
1708,
1719,
1752,
1729,
1776,
1812,
1785,
1738,
1705,
1798,
1790,
1735,
1708,
1813,
1793,
1733,
1839,
1797,
1770,
1739,
1738,
1797,
1773,
1768,
1762,
1730,
1769,
1721,
1756,
1765,
1732,
1749,
1783,
1787,
1773,
1764,
1692,
1732,
1731,
1753,
1728,
1821,
1766,
1703,
1800,
1782,
1752,
1795,
1767,
1766,
1720,
1734,
1734,
1740,
1639,
1726,
1714,
1736,
1752,
1766,
1672,
1736,
1747,
1725,
1720,
1700,
1717,
1693,
1694,
1675,
1689,
1675,
1645,
1663,
1655,
1681,
1709,
1696,
1637,
1674,
1640,
1626,
1612,
1596,
1561,
1600,
1577,
1567,
1550,
1605,
1579,
1540,
1531,
1541,
1529,
1576,
1527,
1542,
1427,
1516,
1511,
1472,
1497,
1571,
1599,
1632,
1586,
1753,
2121,
2890,
4255,
6490,
9317,
12743,
15824,
17778,
17869,
16184,
13407,
9996,
6912,
4587,
2964,
2154,
1646,
1481,
1420,
1441,
1440,
1512,
1557,
1711,
1935,
2206,
2651,
2939,
3271,
3359,
3218,
2927,
2675,
2086,
1755,
1592,
1455,
1322,
1258,
1265,
1232,
1222,
1231,
1209,
1183,
1199,
1223,
1207,
1198,
1191,
1274,
1284,
1303,
1438,
1772,
2361,
3316,
4755,
6663,
8791,
10974,
12447,
12938,
12270,
10472,
8605,
6360,
4420,
3072,
2101,
1621,
1306,
1203,
1091,
1109,
1095,
1092,
1028,
1031,
1072,
1068,
1126,
1183,
1292,
1368,
1577,
1726,
2040,
2247,
2386,
2450,
2408,
2263,
1950,
1730,
1491,
1260,
1132,
1045,
986,
993,
944,
965,
889,
969,
919,
876,
852,
894,
854,
863,
873,
919,
929,
899,
881,
852,
845,
936,
919,
903,
886,
842,
862,
898,
914,
893,
894,
835,
845,
835,
822,
801,
819,
880,
830,
831,
829,
809,
825,
779,
807,
802,
817,
787,
744,
802,
782,
777,
780,
810,
792,
775,
796,
800,
756,
770,
739,
736,
723,
738,
720,
756,
723,
748,
732,
783,
772,
736,
743,
745,
756,
725,
731,
674,
713,
698,
665,
754,
658,
664,
694,
697,
722,
687,
748,
688,
678,
662,
663,
708,
674,
670,
675,
681,
692,
662,
652,
681,
619,
634,
657,
644,
596,
673,
659,
686,
638,
621,
643,
660,
622,
616,
621,
629,
610,
639,
637,
605,
644,
590,
572,
612,
594,
581,
601,
620,
565,
604,
593,
637,
593,
594,
574,
572,
599,
571,
590,
568,
598,
607,
612,
590,
544,
542,
562,
559,
558,
535,
533,
519,
542,
573,
581,
551,
559,
573,
575,
569,
586,
582,
573,
592,
569,
542,
575,
514,
497,
565,
526,
529,
535,
490,
517,
479,
491,
554,
512,
506,
512,
490,
506,
471,
523,
493,
510,
502,
451,
485,
512,
528,
478,
483,
481,
486,
499,
463,
442,
489,
507,
525,
520,
476,
514,
447,
425,
482,
449,
448,
444,
481,
423,
451,
452,
464,
459,
444,
448,
494,
485,
496,
463,
477,
520,
599,
654,
832,
1064,
1391,
1840,
2393,
3133,
3600,
4311,
4767,
4856,
5040,
4738,
4331,
3842,
3119,
2431,
1958,
1555,
1115,
889,
725,
547,
498,
441,
427,
430,
409,
415,
451,
402,
400,
381,
394,
405,
382,
389,
367,
435,
371,
362,
332,
382,
351,
362,
358,
390,
371,
372,
379,
388,
364,
348,
372,
394,
368,
396,
380,
383,
372,
372,
398,
414,
469,
472,
501,
575,
590,
702,
732,
807,
976,
948,
985,
930,
871,
897,
775,
690,
656,
639,
694,
818,
959,
1208,
1759,
2232,
2837,
3720,
4592,
5463,
6096,
6590,
6749,
6671,
6240,
5748,
4980,
4171,
3282,
2538,
1962,
1396,
1030,
786,
568,
462,
404,
360,
344,
319,
301,
297,
286,
321,
344,
315,
288,
293,
240,
275,
283,
281,
259,
276,
268,
286,
310,
283,
291,
269,
248,
266,
251,
277,
262,
292,
262,
278,
281,
268,
253,
273,
255,
275,
287,
288,
276,
251,
244,
271,
285,
253,
282,
274,
292,
335,
394,
444,
480,
614,
732,
809,
883,
957,
1087,
1109,
1059,
1053,
1019,
924,
851,
744,
609,
495,
432,
401,
343,
313,
261,
247,
259,
224,
233,
205,
225,
206,
244,
213,
210,
210,
224,
208,
236,
196,
221,
202,
216,
182,
202,
226,
183,
210,
199,
193,
189,
193,
208,
185,
200,
175,
191,
205,
223,
210,
169,
188,
192,
198,
187,
203,
167,
178,
175,
154,
192,
173,
190,
168,
167,
195,
178,
195,
181,
163,
150,
184,
173,
166,
179,
166,
196,
172,
184,
178,
145,
162,
148,
165,
169,
147,
163,
151,
171,
169,
185,
141,
169,
177,
151,
158,
156,
151,
156,
139,
146,
156,
160,
150,
142,
134,
147,
141,
123,
155,
131,
156,
135,
144,
138,
149,
145,
170,
139,
115,
140,
121,
154,
126,
130,
131,
139,
142,
156,
137,
136,
128,
142,
140,
144,
135,
125,
136,
126,
136,
140,
135,
140,
129,
109,
135,
112,
132,
106,
131,
133,
118,
118,
116,
99,
119,
135,
129,
113,
116,
119,
108,
109,
109,
98,
111,
100,
108,
111,
128,
115,
102,
109,
119,
112,
109,
120,
131,
98,
100,
116,
109,
98,
117,
89,
106,
103,
108,
112,
115,
123,
91,
101,
92,
100,
120,
93,
100,
104,
92,
111,
83,
106,
90,
92,
93,
88,
102,
102,
81,
104,
97,
88,
81,
87,
66,
79,
92,
91,
89,
84,
98,
89,
98,
92,
86,
94,
83,
74,
101,
71,
78,
85,
89,
92,
76,
91,
76,
74,
76,
75,
67,
69,
84,
80,
79,
80,
74,
65,
72,
67,
84,
73,
89,
73,
70,
74,
70,
52,
60,
77,
82,
80,
75,
80,
70,
56,
53,
74,
83,
53,
73,
69,
69,
70,
57,
79,
74,
65,
77,
50,
76,
63,
57,
48,
55,
55,
55,
63,
50,
51,
69,
53,
55,
49,
72,
54,
69,
53,
60,
58,
67,
41,
66,
48,
71,
51,
51,
44,
51,
55,
51,
51,
57,
57,
60,
61,
66,
53,
54,
40,
49,
60,
48,
42,
47,
50,
62,
65,
38,
61,
44,
47,
41,
54,
50,
37,
55,
40,
55,
52,
56,
43,
41,
35,
36,
46,
45,
38,
39,
42,
46,
47,
43,
37,
33,
37,
51,
34,
31,
36,
48,
35,
33,
33,
35,
32,
30,
36,
31,
40,
27,
35,
35,
32,
31,
30,
33,
22,
32,
33,
24,
26,
35,
46,
26,
29,
28,
42,
42,
30,
40,
41,
35,
24,
34,
26,
32,
37,
26,
23,
26,
19,
38,
29,
34,
23,
34,
24,
20,
30,
35,
27,
25,
17,
30,
25,
27,
28,
20,
23,
22,
18,
30,
21,
21,
30,
31,
25,
25,
24,
18,
26,
21,
25,
22,
15,
23,
19,
19,
20,
18,
11,
23,
21,
24,
22,
16,
25,
15,
16,
20,
10,
15,
20,
12,
19,
24,
17,
15,
14,
10,
17,
19,
8,
12,
24,
19,
16,
10,
19,
13,
13,
11,
20,
12,
12,
14,
17,
12,
11,
11,
21,
21,
11,
19,
12,
10,
11,
9,
8,
4,
7,
15,
15,
14,
6,
10,
10,
6,
8,
12,
15,
5,
6,
4,
9,
14,
9,
9,
9,
6,
4,
11,
10,
8,
9,
5,
8,
8,
4,
7,
6,
9,
12,
7,
9,
9,
6,
8,
4,
9,
6,
13,
4,
10,
8,
7,
8,
8,
5,
6,
8,
11,
3,
4,
3,
7,
1,
6,
6,
9,
5,
3,
3,
7,
5,
10,
4,
2,
2,
0,
2,
2,
5,
4,
2,
4,
2,
6,
1,
4,
0,
2,
6,
4,
1,
1,
3,
5,
4,
4,
0,
0,
0,
1,
0,
0,
3,
0,
2,
0,
2,
2,
1,
0,
2,
1,
2,
0,
0,
1,
0,
0,
0,
0,
#ENDOFDATA   :