File: data/exp_raw/ADM6005a spectra/ADM-6005a_2.msa
#FORMAT      : EMSA/MAS Spectral Data File
#VERSION     : 1.0
#TITLE       : Bruker Nano spectrum Acquisition
#DATE        : 12-JUL-2019
#TIME        : 09:36
#OWNER       : Bruker Nano
#NPOINTS     : 4096
#NCOLUMNS    : 1
#XUNITS      : eV
#YUNITS      : counts
#DATATYPE    : Y
#XPERCHAN    : 5.01716
#OFFSET      : -484.208
#BEAMKV      : 20
#SIGNALTYPE  : EDS
#ELEVANGLE   : 40
#AZIMANGLE   : 45
#LIVETIME    : 100.001
#REALTIME    : 112.082
#PROBECUR    : 5
#TAUWIND     : 0
#TDEADLYR    : 0
#TACTLYR     : 0.045
#TALWIND     : 0.004
#CHOFFSET    : 0.0
#XLABEL      : Energy (eV)
#YLABEL      : Counts
#EDSDET      : SDUTW
##DET_HASH   : c6370f9e-cc72-7559-f57e-203d75c8942b
##CALIB_HASH : b2d706fe-df19-4747-f399-990df6ef62be
##SAMPLE     : <BulkSample id="1">\n<mOrientation id="2">\n<double>0.0</double>\n<double>0.0</double>\n<double>-1.0</double>\n</mOrientation>\n</BulkSample>
#SPECTRUM    :
0,
0,
0,
0,
0,
0,
0,
0,
0,
0,
0,
0,
0,
0,
0,
0,
0,
0,
0,
4,
7,
13,
12,
14,
13,
9,
11,
138,
1524,
11318,
46606,
105461,
128408,
84314,
30460,
5901,
691,
68,
10,
0,
22,
274,
259,
277,
276,
334,
419,
658,
1194,
1972,
2638,
2540,
1663,
912,
575,
591,
711,
853,
980,
1034,
1152,
1438,
1990,
3630,
8411,
17110,
27391,
30841,
24183,
13331,
5452,
1949,
935,
743,
759,
781,
859,
906,
986,
1061,
1172,
1174,
1268,
1221,
1347,
1451,
1627,
1685,
2043,
2387,
2676,
2960,
2825,
2881,
2736,
3600,
5644,
10220,
16365,
22049,
23848,
21469,
15952,
10561,
6553,
4824,
5014,
8054,
15534,
28366,
44685,
56132,
58209,
50169,
35703,
21773,
12017,
6379,
3865,
2843,
2205,
1977,
1807,
1673,
1778,
1975,
2671,
4555,
7968,
12481,
16851,
18622,
16857,
12763,
8207,
5128,
3189,
2300,
1933,
1753,
1815,
1748,
2072,
2827,
4424,
6937,
10109,
12594,
13371,
11838,
8976,
6101,
4121,
2922,
2356,
2193,
1965,
1876,
1773,
1675,
1725,
1745,
1747,
1743,
1760,
1785,
1765,
1680,
1732,
1734,
1779,
1759,
1756,
1779,
1740,
1788,
1767,
1763,
1779,
1780,
1726,
1788,
1752,
1726,
1765,
1763,
1757,
1780,
1759,
1810,
1779,
1779,
1775,
1748,
1783,
1750,
1732,
1747,
1692,
1723,
1752,
1783,
1777,
1699,
1738,
1827,
1781,
1757,
1767,
1793,
1782,
1789,
1749,
1721,
1692,
1733,
1691,
1764,
1675,
1751,
1660,
1660,
1696,
1744,
1687,
1733,
1702,
1708,
1662,
1726,
1651,
1689,
1636,
1668,
1643,
1642,
1636,
1621,
1649,
1630,
1694,
1625,
1592,
1624,
1611,
1610,
1580,
1533,
1594,
1544,
1550,
1531,
1580,
1585,
1529,
1546,
1532,
1548,
1513,
1512,
1472,
1580,
1492,
1523,
1529,
1537,
1527,
1527,
1629,
1770,
2216,
2924,
4364,
6599,
9333,
12776,
15753,
17827,
17986,
16318,
13461,
9847,
6860,
4540,
3033,
2197,
1671,
1533,
1442,
1430,
1457,
1491,
1510,
1710,
1947,
2211,
2509,
2972,
3248,
3328,
3236,
2983,
2584,
2089,
1797,
1518,
1432,
1343,
1266,
1248,
1236,
1268,
1228,
1219,
1223,
1232,
1227,
1211,
1208,
1205,
1214,
1194,
1320,
1394,
1735,
2346,
3342,
4835,
6681,
8946,
10947,
12543,
13121,
12178,
10739,
8517,
6303,
4383,
3038,
2095,
1568,
1320,
1181,
1092,
1157,
1108,
1083,
1079,
1074,
1072,
1068,
1114,
1105,
1220,
1358,
1528,
1780,
2014,
2303,
2444,
2502,
2417,
2290,
1992,
1752,
1504,
1286,
1157,
1022,
1000,
975,
964,
950,
949,
947,
935,
937,
977,
944,
911,
937,
915,
919,
920,
904,
902,
911,
908,
905,
926,
888,
888,
868,
878,
883,
861,
850,
850,
849,
851,
854,
863,
826,
827,
817,
835,
814,
858,
822,
842,
810,
807,
813,
838,
795,
807,
813,
806,
783,
778,
788,
779,
763,
780,
798,
767,
746,
771,
765,
781,
766,
776,
725,
744,
754,
727,
761,
748,
726,
770,
711,
681,
671,
734,
702,
657,
667,
690,
705,
747,
737,
737,
742,
690,
738,
735,
728,
695,
652,
699,
668,
691,
737,
743,
678,
679,
658,
653,
698,
669,
660,
644,
636,
622,
657,
629,
619,
596,
648,
611,
670,
653,
598,
591,
613,
586,
655,
605,
601,
620,
621,
613,
631,
609,
598,
604,
609,
591,
560,
615,
565,
580,
588,
567,
627,
609,
580,
584,
583,
572,
576,
529,
593,
557,
565,
587,
534,
537,
590,
525,
523,
546,
544,
546,
584,
606,
586,
556,
570,
564,
580,
551,
567,
514,
529,
536,
466,
520,
482,
474,
512,
502,
512,
534,
508,
551,
482,
501,
513,
471,
513,
528,
521,
449,
495,
481,
515,
498,
473,
490,
505,
491,
463,
505,
499,
513,
428,
440,
485,
495,
463,
450,
456,
441,
485,
464,
458,
499,
472,
465,
450,
452,
440,
461,
487,
453,
452,
493,
455,
458,
502,
454,
486,
546,
567,
638,
819,
1076,
1470,
1928,
2402,
2986,
3722,
4254,
4662,
5029,
4950,
4868,
4323,
3708,
3128,
2546,
1868,
1412,
1080,
838,
670,
544,
530,
445,
450,
445,
389,
408,
370,
365,
393,
406,
408,
421,
411,
378,
385,
417,
358,
402,
360,
389,
371,
360,
365,
377,
386,
412,
346,
375,
389,
379,
355,
342,
389,
387,
384,
384,
372,
395,
376,
448,
395,
457,
543,
532,
643,
683,
758,
834,
918,
931,
977,
1002,
923,
867,
844,
740,
707,
619,
696,
796,
948,
1275,
1641,
2219,
2985,
3634,
4436,
5397,
6027,
6669,
6781,
6703,
6336,
5815,
4989,
4051,
3296,
2523,
1900,
1401,
1010,
774,
571,
406,
413,
361,
339,
296,
310,
283,
285,
302,
295,
333,
308,
327,
258,
275,
277,
304,
294,
293,
279,
285,
303,
280,
269,
291,
288,
287,
287,
269,
260,
284,
262,
285,
272,
275,
288,
271,
257,
278,
273,
240,
305,
273,
271,
307,
301,
271,
265,
309,
307,
327,
330,
393,
532,
624,
704,
768,
893,
1039,
1081,
1104,
1152,
1043,
971,
930,
824,
732,
615,
528,
432,
383,
328,
290,
257,
255,
239,
245,
211,
213,
227,
209,
198,
198,
216,
227,
213,
210,
171,
233,
209,
204,
211,
227,
204,
193,
210,
188,
199,
172,
214,
186,
194,
223,
204,
191,
178,
216,
195,
187,
193,
217,
192,
188,
209,
181,
178,
172,
218,
181,
180,
169,
174,
185,
193,
211,
167,
193,
192,
180,
194,
163,
178,
187,
174,
190,
155,
179,
154,
158,
165,
176,
154,
158,
160,
172,
196,
186,
161,
155,
147,
166,
148,
148,
165,
163,
167,
147,
144,
136,
176,
142,
158,
149,
165,
156,
162,
155,
143,
148,
161,
148,
143,
133,
153,
162,
140,
138,
149,
127,
150,
154,
115,
127,
140,
131,
157,
131,
147,
154,
136,
125,
132,
118,
118,
127,
138,
126,
133,
136,
128,
128,
114,
120,
139,
138,
132,
119,
122,
120,
139,
114,
125,
127,
124,
130,
143,
118,
123,
96,
124,
145,
120,
140,
112,
115,
113,
110,
96,
107,
115,
121,
112,
103,
98,
107,
101,
96,
106,
101,
102,
114,
126,
100,
107,
102,
106,
86,
89,
90,
85,
100,
114,
99,
95,
90,
112,
103,
89,
96,
97,
106,
93,
114,
88,
82,
95,
91,
75,
87,
82,
75,
85,
84,
90,
73,
92,
88,
99,
74,
100,
94,
70,
84,
70,
91,
101,
86,
99,
105,
75,
78,
90,
72,
73,
78,
102,
61,
76,
91,
76,
74,
85,
68,
65,
83,
70,
88,
66,
77,
66,
78,
70,
74,
83,
56,
76,
56,
76,
71,
95,
70,
75,
74,
76,
68,
76,
88,
68,
58,
63,
67,
72,
64,
67,
48,
68,
61,
73,
66,
63,
80,
67,
62,
67,
42,
60,
63,
45,
56,
55,
63,
82,
51,
53,
58,
60,
80,
40,
49,
54,
55,
61,
61,
65,
56,
57,
54,
51,
61,
45,
56,
52,
46,
53,
43,
63,
62,
62,
46,
43,
45,
55,
63,
44,
49,
57,
48,
44,
36,
52,
72,
64,
48,
41,
48,
51,
40,
38,
47,
55,
49,
41,
43,
54,
45,
32,
48,
43,
43,
35,
40,
28,
50,
31,
35,
32,
52,
45,
40,
40,
38,
49,
34,
38,
46,
42,
43,
34,
36,
38,
38,
35,
31,
36,
36,
33,
45,
32,
31,
22,
35,
29,
27,
38,
21,
20,
36,
35,
26,
26,
35,
22,
26,
30,
29,
25,
30,
29,
29,
38,
25,
12,
33,
25,
26,
26,
21,
30,
22,
21,
24,
22,
28,
32,
29,
22,
30,
31,
27,
29,
21,
20,
20,
19,
23,
17,
23,
18,
22,
26,
18,
19,
16,
24,
17,
18,
26,
14,
25,
19,
20,
17,
29,
24,
19,
21,
16,
25,
17,
15,
17,
21,
20,
26,
19,
17,
19,
18,
19,
16,
15,
24,
19,
13,
8,
13,
18,
12,
8,
13,
19,
20,
16,
14,
12,
8,
14,
19,
16,
13,
16,
14,
15,
11,
17,
14,
17,
11,
13,
11,
8,
10,
10,
11,
17,
8,
13,
11,
12,
15,
13,
14,
6,
9,
4,
9,
10,
6,
13,
9,
7,
4,
9,
9,
5,
7,
7,
7,
11,
4,
6,
6,
11,
10,
4,
11,
5,
3,
10,
4,
7,
4,
10,
5,
6,
11,
6,
7,
3,
8,
4,
6,
5,
5,
8,
4,
2,
5,
3,
5,
7,
6,
7,
4,
2,
4,
2,
2,
1,
6,
1,
7,
5,
5,
4,
5,
4,
3,
0,
5,
4,
1,
0,
0,
2,
2,
2,
2,
3,
0,
3,
4,
1,
0,
0,
0,
4,
2,
1,
1,
0,
4,
1,
1,
1,
1,
0,
0,
4,
1,
2,
2,
0,
0,
0,
#ENDOFDATA   :