File: data/exp_raw/ADM6005a spectra/ADM-6005a_6.msa
#FORMAT      : EMSA/MAS Spectral Data File
#VERSION     : 1.0
#TITLE       : Bruker Nano spectrum Acquisition
#DATE        : 12-JUL-2019
#TIME        : 09:49
#OWNER       : Bruker Nano
#NPOINTS     : 4096
#NCOLUMNS    : 1
#XUNITS      : eV
#YUNITS      : counts
#DATATYPE    : Y
#XPERCHAN    : 5.01716
#OFFSET      : -484.208
#BEAMKV      : 20
#SIGNALTYPE  : EDS
#ELEVANGLE   : 40
#AZIMANGLE   : 45
#LIVETIME    : 100.001
#REALTIME    : 112.131
#PROBECUR    : 5
#TAUWIND     : 0
#TDEADLYR    : 0
#TACTLYR     : 0.045
#TALWIND     : 0.004
#CHOFFSET    : 0.0
#XLABEL      : Energy (eV)
#YLABEL      : Counts
#EDSDET      : SDUTW
##DET_HASH   : c6370f9e-cc72-7559-f57e-203d75c8942b
##CALIB_HASH : b2d706fe-df19-4747-f399-990df6ef62be
##SAMPLE     : <BulkSample id="1">\n<mOrientation id="2">\n<double>0.0</double>\n<double>0.0</double>\n<double>-1.0</double>\n</mOrientation>\n</BulkSample>
#SPECTRUM    :
0,
0,
0,
0,
0,
0,
0,
0,
0,
0,
0,
0,
0,
0,
0,
0,
0,
0,
2,
2,
4,
10,
9,
14,
12,
10,
8,
130,
1499,
11079,
46811,
105053,
128581,
84312,
30195,
6024,
721,
51,
14,
8,
34,
287,
267,
261,
290,
327,
410,
671,
1163,
1952,
2655,
2447,
1635,
839,
600,
638,
681,
848,
992,
1054,
1145,
1370,
1958,
3600,
8421,
17398,
27455,
30777,
24257,
13548,
5386,
1988,
910,
780,
746,
811,
886,
931,
1019,
1111,
1099,
1177,
1248,
1292,
1380,
1427,
1529,
1778,
2000,
2379,
2593,
2857,
2886,
2803,
2801,
3502,
5665,
10047,
16369,
22068,
24143,
21367,
15999,
10594,
6661,
4767,
5102,
7840,
15625,
28657,
44096,
55723,
57733,
49558,
36058,
22083,
12011,
6438,
3925,
2790,
2192,
1978,
1696,
1799,
1792,
2050,
2635,
4584,
7833,
12699,
16873,
18599,
17046,
12670,
8259,
5095,
3157,
2332,
1951,
1772,
1629,
1798,
2096,
2886,
4468,
6946,
10068,
12631,
13304,
11823,
8997,
6260,
4120,
2964,
2443,
2201,
1970,
1871,
1733,
1725,
1700,
1747,
1715,
1761,
1747,
1770,
1767,
1767,
1758,
1745,
1700,
1778,
1782,
1788,
1737,
1807,
1780,
1794,
1809,
1774,
1781,
1765,
1798,
1751,
1757,
1732,
1791,
1720,
1766,
1744,
1761,
1717,
1722,
1740,
1794,
1690,
1750,
1717,
1794,
1723,
1813,
1787,
1744,
1714,
1742,
1773,
1756,
1818,
1753,
1771,
1756,
1771,
1750,
1709,
1702,
1683,
1699,
1690,
1688,
1726,
1760,
1734,
1737,
1766,
1776,
1700,
1696,
1736,
1693,
1720,
1685,
1685,
1647,
1662,
1639,
1641,
1679,
1659,
1564,
1646,
1652,
1620,
1652,
1684,
1626,
1626,
1595,
1600,
1628,
1608,
1576,
1566,
1617,
1585,
1534,
1536,
1547,
1528,
1625,
1525,
1567,
1513,
1455,
1501,
1557,
1539,
1522,
1563,
1650,
1791,
2118,
2893,
4161,
6431,
9287,
12604,
15653,
17752,
17879,
16281,
13014,
10021,
6993,
4482,
3026,
2177,
1699,
1573,
1449,
1451,
1405,
1454,
1605,
1728,
1965,
2278,
2596,
3010,
3287,
3324,
3211,
2920,
2654,
2136,
1790,
1532,
1336,
1333,
1290,
1244,
1232,
1250,
1218,
1230,
1204,
1210,
1181,
1202,
1179,
1193,
1203,
1244,
1233,
1433,
1715,
2310,
3269,
4842,
6798,
8843,
10906,
12451,
13023,
12292,
10709,
8472,
6478,
4389,
3041,
2071,
1622,
1293,
1183,
1123,
1103,
1079,
1049,
1022,
1074,
1125,
1059,
1063,
1164,
1196,
1397,
1553,
1797,
2049,
2242,
2401,
2468,
2436,
2286,
1987,
1711,
1441,
1249,
1089,
1036,
960,
936,
880,
902,
915,
904,
881,
952,
923,
870,
930,
871,
899,
872,
914,
881,
879,
864,
915,
865,
883,
855,
842,
846,
887,
920,
836,
797,
824,
824,
815,
826,
847,
805,
810,
812,
816,
816,
787,
802,
801,
812,
792,
777,
786,
813,
793,
779,
804,
789,
794,
771,
761,
751,
745,
782,
763,
764,
759,
772,
750,
719,
785,
779,
749,
759,
737,
738,
748,
747,
735,
725,
768,
705,
715,
767,
722,
676,
691,
713,
743,
711,
693,
681,
706,
681,
676,
733,
739,
761,
682,
644,
678,
705,
685,
648,
643,
648,
678,
664,
641,
713,
647,
657,
622,
626,
626,
665,
676,
604,
624,
588,
686,
672,
659,
614,
651,
561,
614,
586,
567,
618,
623,
630,
605,
580,
630,
611,
633,
587,
584,
576,
559,
604,
576,
581,
560,
532,
596,
558,
542,
560,
578,
589,
579,
547,
559,
606,
546,
549,
548,
571,
589,
568,
554,
527,
582,
557,
560,
574,
566,
574,
582,
570,
556,
511,
546,
517,
547,
530,
546,
528,
539,
488,
535,
513,
502,
516,
542,
489,
503,
508,
497,
482,
490,
523,
464,
462,
477,
500,
458,
468,
515,
473,
487,
458,
518,
477,
465,
444,
494,
472,
476,
434,
484,
477,
451,
488,
425,
446,
433,
448,
491,
447,
454,
460,
443,
423,
464,
406,
464,
459,
476,
519,
515,
547,
680,
842,
1049,
1476,
1820,
2426,
3008,
3696,
4225,
4769,
5033,
4908,
4638,
4345,
3753,
3130,
2533,
1982,
1456,
1079,
782,
658,
554,
495,
464,
412,
402,
390,
380,
422,
385,
395,
403,
371,
438,
402,
379,
353,
402,
380,
347,
396,
396,
359,
389,
379,
384,
397,
407,
373,
413,
413,
359,
390,
385,
381,
407,
354,
384,
343,
371,
414,
469,
411,
496,
508,
555,
575,
691,
759,
865,
871,
954,
969,
943,
955,
835,
837,
723,
622,
630,
661,
785,
1028,
1247,
1720,
2160,
2996,
3743,
4571,
5297,
6006,
6601,
6821,
6648,
6265,
5882,
4896,
4124,
3299,
2496,
1872,
1434,
1027,
765,
567,
444,
392,
353,
337,
308,
306,
274,
327,
307,
323,
318,
294,
289,
292,
329,
281,
266,
279,
308,
288,
289,
286,
302,
282,
292,
295,
297,
289,
286,
307,
268,
259,
320,
239,
280,
267,
264,
291,
267,
263,
259,
252,
250,
293,
269,
266,
265,
271,
324,
331,
315,
380,
461,
512,
620,
671,
826,
873,
1055,
1079,
1162,
1095,
1025,
1005,
888,
789,
735,
582,
487,
428,
374,
360,
307,
270,
242,
241,
223,
215,
241,
206,
187,
216,
259,
215,
193,
238,
220,
198,
219,
201,
208,
195,
198,
185,
198,
198,
176,
214,
212,
202,
204,
203,
201,
193,
205,
193,
170,
165,
168,
209,
198,
206,
190,
198,
170,
181,
194,
180,
199,
194,
201,
181,
186,
174,
190,
204,
189,
155,
203,
188,
172,
186,
182,
189,
175,
175,
163,
180,
172,
165,
169,
172,
163,
180,
159,
168,
149,
152,
189,
184,
159,
168,
162,
161,
158,
161,
170,
162,
176,
142,
163,
136,
153,
152,
154,
142,
153,
139,
163,
147,
146,
139,
144,
153,
108,
152,
130,
138,
148,
156,
138,
141,
147,
165,
134,
141,
131,
134,
132,
121,
145,
144,
161,
146,
126,
127,
144,
141,
132,
143,
110,
127,
127,
132,
121,
128,
119,
132,
125,
115,
109,
122,
99,
127,
127,
108,
122,
118,
123,
112,
138,
130,
80,
112,
117,
114,
122,
115,
129,
123,
96,
103,
100,
111,
112,
107,
103,
115,
115,
123,
106,
81,
119,
100,
102,
117,
106,
106,
121,
104,
104,
106,
103,
104,
98,
106,
106,
106,
102,
91,
99,
95,
86,
98,
97,
91,
96,
99,
87,
101,
77,
92,
89,
90,
98,
86,
98,
73,
94,
81,
83,
71,
85,
80,
98,
81,
99,
90,
74,
86,
83,
83,
73,
83,
70,
84,
60,
84,
66,
88,
70,
74,
85,
78,
74,
74,
89,
68,
81,
83,
70,
58,
69,
66,
75,
79,
78,
71,
77,
81,
63,
67,
60,
72,
76,
67,
72,
67,
74,
61,
63,
65,
82,
65,
64,
75,
64,
58,
56,
62,
67,
62,
67,
57,
76,
55,
54,
66,
73,
60,
62,
74,
65,
71,
53,
61,
49,
62,
43,
56,
64,
48,
53,
46,
62,
60,
46,
59,
51,
64,
54,
53,
42,
60,
64,
45,
49,
65,
47,
48,
51,
46,
46,
52,
52,
44,
53,
52,
45,
47,
45,
39,
49,
40,
37,
44,
53,
41,
42,
53,
44,
48,
46,
54,
36,
41,
37,
50,
41,
51,
50,
41,
36,
39,
42,
41,
40,
39,
42,
44,
49,
55,
36,
36,
26,
36,
38,
42,
34,
35,
32,
38,
32,
38,
28,
38,
35,
38,
31,
26,
25,
46,
47,
40,
36,
39,
28,
43,
32,
35,
26,
15,
37,
11,
30,
28,
29,
33,
22,
33,
29,
27,
22,
27,
26,
21,
24,
28,
26,
24,
26,
13,
20,
22,
23,
24,
18,
17,
22,
29,
18,
16,
25,
19,
32,
22,
26,
26,
26,
19,
28,
13,
33,
33,
19,
19,
23,
19,
24,
17,
13,
15,
22,
20,
18,
26,
17,
19,
12,
23,
14,
21,
16,
15,
11,
18,
16,
21,
11,
6,
14,
18,
16,
21,
11,
15,
18,
13,
15,
19,
14,
12,
15,
16,
13,
12,
12,
9,
10,
10,
13,
16,
11,
13,
13,
16,
14,
17,
12,
8,
12,
11,
8,
6,
9,
9,
12,
10,
14,
8,
5,
10,
8,
8,
11,
7,
10,
8,
9,
9,
10,
3,
4,
9,
14,
9,
8,
6,
10,
10,
9,
12,
6,
8,
14,
9,
9,
8,
4,
3,
7,
3,
8,
2,
8,
5,
5,
5,
6,
5,
8,
6,
4,
2,
9,
5,
3,
5,
4,
7,
3,
7,
5,
4,
6,
2,
4,
3,
1,
2,
2,
2,
1,
4,
6,
0,
1,
3,
3,
2,
5,
1,
6,
4,
1,
0,
1,
0,
0,
0,
5,
2,
0,
0,
0,
0,
2,
1,
4,
2,
2,
0,
0,
1,
0,
0,
0,
0,
2,
0,
2,
0,
0,
0,
0,
#ENDOFDATA   :