File: data/exp_raw/ADM6005a spectra/ADM-6005a_1.msa
#FORMAT      : EMSA/MAS Spectral Data File
#VERSION     : 1.0
#TITLE       : Bruker Nano spectrum Acquisition
#DATE        : 12-JUL-2019
#TIME        : 09:33
#OWNER       : Bruker Nano
#NPOINTS     : 4096
#NCOLUMNS    : 1
#XUNITS      : eV
#YUNITS      : counts
#DATATYPE    : Y
#XPERCHAN    : 5.01716
#OFFSET      : -484.208
#BEAMKV      : 20
#SIGNALTYPE  : EDS
#ELEVANGLE   : 40
#AZIMANGLE   : 45
#LIVETIME    : 100.001
#REALTIME    : 112.108
#PROBECUR    : 5
#TAUWIND     : 0
#TDEADLYR    : 0
#TACTLYR     : 0.045
#TALWIND     : 0.004
#CHOFFSET    : 0.0
#XLABEL      : Energy (eV)
#YLABEL      : Counts
#EDSDET      : SDUTW
##DET_HASH   : c6370f9e-cc72-7559-f57e-203d75c8942b
##CALIB_HASH : b2d706fe-df19-4747-f399-990df6ef62be
##SAMPLE     : <BulkSample id="1">\n<mOrientation id="2">\n<double>0.0</double>\n<double>0.0</double>\n<double>-1.0</double>\n</mOrientation>\n</BulkSample>
#SPECTRUM    :
0,
0,
0,
0,
0,
0,
0,
0,
0,
0,
0,
0,
0,
0,
0,
0,
0,
1,
0,
0,
7,
15,
13,
15,
12,
13,
18,
109,
1548,
11119,
46600,
105558,
128505,
84785,
30337,
5965,
689,
79,
16,
0,
23,
313,
267,
275,
321,
314,
441,
712,
1165,
2002,
2695,
2510,
1677,
890,
619,
594,
674,
834,
973,
1064,
1143,
1455,
1984,
3744,
8375,
17432,
27532,
30731,
24484,
13506,
5301,
1897,
905,
731,
738,
901,
882,
928,
1065,
1114,
1166,
1255,
1303,
1265,
1339,
1465,
1636,
1703,
1972,
2323,
2705,
2888,
2836,
2726,
2778,
3571,
5555,
10114,
16258,
21844,
24201,
21526,
15943,
10517,
6714,
4812,
5020,
7838,
15333,
28996,
43850,
55952,
57898,
49555,
35829,
22251,
12144,
6375,
3823,
2739,
2292,
1888,
1778,
1732,
1770,
1888,
2838,
4498,
7845,
12568,
17055,
18581,
16813,
12817,
8287,
4965,
3124,
2323,
1921,
1801,
1783,
1777,
2047,
2808,
4449,
7077,
10140,
12536,
13347,
11872,
8913,
6174,
4130,
2928,
2369,
2219,
2020,
1901,
1796,
1738,
1707,
1707,
1725,
1709,
1785,
1799,
1784,
1726,
1700,
1731,
1741,
1799,
1793,
1770,
1839,
1757,
1786,
1750,
1814,
1735,
1763,
1750,
1799,
1756,
1776,
1750,
1829,
1763,
1818,
1746,
1781,
1803,
1779,
1787,
1778,
1797,
1753,
1811,
1801,
1715,
1765,
1792,
1811,
1747,
1825,
1740,
1747,
1739,
1744,
1776,
1774,
1754,
1736,
1692,
1698,
1709,
1704,
1694,
1720,
1781,
1753,
1740,
1724,
1683,
1675,
1679,
1710,
1669,
1669,
1648,
1708,
1647,
1693,
1671,
1651,
1663,
1637,
1656,
1616,
1601,
1617,
1684,
1620,
1607,
1575,
1614,
1579,
1615,
1557,
1658,
1576,
1560,
1597,
1564,
1531,
1607,
1536,
1547,
1529,
1546,
1517,
1516,
1519,
1565,
1520,
1530,
1507,
1559,
1613,
1769,
2200,
2885,
4329,
6418,
9467,
12703,
15859,
17800,
17951,
16125,
13556,
9865,
6927,
4521,
2892,
2096,
1703,
1505,
1446,
1451,
1509,
1478,
1494,
1631,
1897,
2255,
2629,
3002,
3201,
3458,
3156,
3011,
2536,
2130,
1850,
1608,
1426,
1313,
1259,
1226,
1265,
1216,
1220,
1270,
1194,
1177,
1170,
1190,
1238,
1182,
1161,
1232,
1292,
1436,
1761,
2386,
3326,
4838,
6648,
8936,
10843,
12737,
12932,
12372,
10733,
8692,
6435,
4496,
3079,
2012,
1543,
1290,
1240,
1128,
1018,
1064,
1040,
1099,
1118,
1039,
1093,
1084,
1177,
1255,
1364,
1571,
1796,
2036,
2281,
2432,
2462,
2384,
2235,
1950,
1749,
1479,
1209,
1091,
1046,
949,
928,
912,
939,
829,
926,
972,
900,
874,
898,
917,
878,
878,
883,
891,
943,
882,
865,
872,
942,
813,
916,
908,
857,
895,
860,
840,
868,
845,
863,
824,
804,
831,
798,
876,
808,
853,
797,
804,
815,
800,
805,
794,
816,
798,
788,
792,
811,
794,
786,
783,
812,
788,
827,
765,
774,
777,
770,
776,
764,
755,
763,
774,
752,
753,
780,
750,
760,
756,
748,
744,
744,
740,
752,
740,
699,
769,
697,
705,
711,
753,
710,
696,
697,
703,
732,
742,
724,
756,
726,
684,
676,
672,
721,
762,
664,
688,
684,
702,
664,
671,
644,
714,
649,
623,
660,
642,
641,
666,
609,
622,
624,
626,
591,
616,
600,
623,
586,
604,
618,
645,
634,
592,
559,
605,
600,
601,
602,
634,
613,
630,
593,
551,
620,
620,
573,
598,
532,
595,
538,
544,
554,
570,
583,
555,
553,
573,
565,
529,
540,
543,
581,
505,
586,
551,
546,
556,
581,
580,
617,
576,
578,
597,
535,
558,
572,
565,
569,
524,
529,
487,
531,
537,
507,
539,
506,
476,
577,
460,
530,
523,
509,
533,
504,
490,
466,
461,
526,
505,
477,
508,
488,
502,
503,
474,
537,
470,
451,
474,
482,
480,
477,
495,
524,
504,
428,
468,
406,
458,
496,
477,
475,
491,
477,
441,
421,
433,
447,
462,
447,
442,
453,
459,
516,
505,
629,
695,
885,
1026,
1448,
1893,
2436,
3028,
3719,
4262,
4655,
5053,
4949,
4773,
4282,
3777,
3144,
2421,
1953,
1483,
1088,
799,
632,
580,
479,
423,
438,
441,
417,
387,
422,
419,
402,
409,
409,
384,
410,
391,
394,
365,
380,
359,
413,
409,
358,
376,
359,
376,
399,
359,
377,
375,
343,
374,
355,
371,
407,
366,
376,
377,
383,
383,
376,
402,
435,
469,
479,
561,
614,
655,
745,
883,
850,
958,
1010,
992,
961,
867,
763,
707,
685,
615,
748,
792,
986,
1284,
1710,
2307,
2961,
3802,
4639,
5380,
6087,
6561,
6812,
6761,
6336,
5670,
4985,
4195,
3267,
2493,
1816,
1407,
1041,
729,
592,
443,
384,
312,
357,
324,
304,
295,
295,
319,
290,
292,
277,
277,
282,
262,
285,
293,
268,
276,
282,
245,
277,
295,
257,
278,
269,
285,
269,
291,
321,
295,
247,
236,
245,
297,
244,
257,
259,
286,
251,
272,
294,
283,
285,
300,
260,
247,
275,
293,
342,
361,
377,
478,
513,
578,
704,
759,
965,
987,
1121,
1129,
1112,
1069,
1030,
909,
835,
683,
567,
507,
418,
375,
328,
284,
279,
269,
254,
219,
235,
242,
214,
224,
186,
207,
214,
219,
207,
182,
186,
207,
207,
199,
214,
197,
193,
176,
214,
220,
205,
217,
213,
184,
200,
186,
191,
196,
192,
185,
199,
183,
196,
213,
181,
190,
176,
216,
221,
169,
189,
197,
162,
168,
205,
182,
175,
179,
192,
154,
203,
196,
162,
184,
199,
162,
177,
161,
141,
166,
170,
180,
167,
176,
169,
181,
170,
148,
190,
171,
155,
157,
169,
172,
169,
173,
171,
164,
150,
161,
174,
155,
153,
148,
151,
155,
164,
160,
160,
139,
157,
139,
159,
149,
159,
136,
143,
172,
145,
133,
130,
155,
163,
140,
138,
159,
127,
150,
111,
109,
135,
162,
132,
131,
119,
139,
125,
108,
114,
139,
108,
123,
129,
128,
138,
106,
120,
149,
123,
121,
126,
124,
136,
136,
137,
118,
143,
140,
142,
105,
117,
125,
124,
97,
127,
109,
109,
133,
105,
118,
130,
110,
137,
131,
116,
102,
109,
127,
112,
120,
122,
111,
103,
119,
102,
98,
92,
116,
105,
91,
103,
111,
95,
124,
116,
105,
89,
116,
98,
96,
92,
113,
94,
104,
91,
93,
111,
96,
94,
90,
83,
108,
105,
102,
80,
80,
94,
74,
101,
86,
85,
85,
92,
120,
74,
94,
93,
94,
83,
74,
70,
81,
94,
87,
88,
81,
85,
87,
105,
82,
90,
82,
72,
95,
70,
72,
81,
89,
79,
75,
78,
78,
78,
74,
75,
72,
88,
74,
71,
75,
70,
64,
63,
53,
66,
60,
68,
83,
54,
59,
54,
73,
78,
53,
75,
75,
62,
55,
72,
49,
55,
72,
61,
68,
62,
64,
48,
60,
69,
54,
56,
63,
55,
52,
61,
44,
65,
57,
46,
68,
57,
49,
52,
60,
54,
49,
60,
52,
48,
49,
54,
57,
51,
64,
43,
49,
58,
47,
40,
48,
53,
51,
45,
45,
47,
49,
45,
45,
58,
39,
39,
57,
44,
49,
53,
44,
46,
50,
41,
51,
40,
51,
44,
42,
51,
45,
42,
31,
46,
56,
39,
44,
49,
35,
25,
33,
29,
40,
47,
38,
39,
26,
42,
36,
32,
37,
33,
36,
33,
27,
34,
37,
40,
26,
41,
43,
42,
31,
36,
27,
37,
38,
37,
35,
35,
31,
43,
32,
23,
22,
29,
37,
32,
31,
45,
28,
38,
26,
38,
28,
32,
21,
23,
39,
25,
30,
24,
27,
25,
18,
24,
21,
27,
24,
24,
32,
28,
17,
25,
26,
25,
22,
15,
12,
22,
17,
30,
21,
20,
24,
21,
20,
21,
22,
19,
16,
22,
16,
26,
19,
20,
17,
13,
16,
21,
14,
23,
18,
24,
21,
10,
23,
22,
21,
24,
19,
17,
15,
21,
20,
18,
24,
18,
27,
14,
19,
19,
11,
22,
17,
17,
16,
16,
18,
18,
16,
16,
14,
15,
15,
14,
13,
12,
7,
9,
11,
9,
15,
15,
13,
9,
16,
11,
14,
10,
14,
11,
7,
12,
20,
8,
7,
11,
8,
15,
6,
8,
6,
6,
10,
7,
10,
10,
9,
11,
11,
10,
6,
10,
9,
11,
6,
9,
8,
11,
7,
9,
5,
6,
4,
1,
8,
3,
6,
5,
4,
9,
1,
7,
6,
7,
2,
3,
3,
10,
4,
3,
7,
4,
6,
5,
5,
3,
4,
5,
0,
6,
4,
4,
0,
2,
5,
1,
3,
2,
1,
4,
2,
0,
5,
0,
1,
1,
5,
3,
4,
1,
1,
2,
0,
0,
3,
0,
2,
0,
4,
1,
2,
0,
4,
1,
2,
2,
1,
2,
1,
0,
2,
2,
0,
0,
0,
0,
0,
0,
0,
0,
0,
#ENDOFDATA   :