File: data/exp_raw/ADM6005a spectra/ADM-6005a_5.msa
#FORMAT      : EMSA/MAS Spectral Data File
#VERSION     : 1.0
#TITLE       : Bruker Nano spectrum Acquisition
#DATE        : 12-JUL-2019
#TIME        : 09:46
#OWNER       : Bruker Nano
#NPOINTS     : 4096
#NCOLUMNS    : 1
#XUNITS      : eV
#YUNITS      : counts
#DATATYPE    : Y
#XPERCHAN    : 5.01716
#OFFSET      : -484.208
#BEAMKV      : 20
#SIGNALTYPE  : EDS
#ELEVANGLE   : 40
#AZIMANGLE   : 45
#LIVETIME    : 100.001
#REALTIME    : 112.11
#PROBECUR    : 5
#TAUWIND     : 0
#TDEADLYR    : 0
#TACTLYR     : 0.045
#TALWIND     : 0.004
#CHOFFSET    : 0.0
#XLABEL      : Energy (eV)
#YLABEL      : Counts
#EDSDET      : SDUTW
##DET_HASH   : c6370f9e-cc72-7559-f57e-203d75c8942b
##CALIB_HASH : b2d706fe-df19-4747-f399-990df6ef62be
##SAMPLE     : <BulkSample id="1">\n<mOrientation id="2">\n<double>0.0</double>\n<double>0.0</double>\n<double>-1.0</double>\n</mOrientation>\n</BulkSample>
#SPECTRUM    :
0,
0,
0,
0,
0,
0,
0,
0,
0,
0,
0,
0,
0,
0,
0,
0,
0,
1,
2,
1,
6,
13,
13,
11,
10,
9,
15,
105,
1441,
11217,
46542,
105392,
129005,
84994,
30438,
5866,
682,
64,
0,
0,
18,
295,
267,
268,
281,
339,
422,
694,
1210,
2005,
2692,
2536,
1651,
930,
616,
591,
714,
817,
976,
1026,
1192,
1380,
1979,
3681,
8298,
17438,
27416,
30941,
24569,
13495,
5450,
1923,
879,
753,
741,
802,
887,
964,
1010,
1100,
1109,
1192,
1202,
1309,
1367,
1489,
1587,
1736,
2100,
2322,
2692,
2876,
2895,
2713,
2839,
3540,
5781,
10198,
16228,
21965,
23908,
21511,
16218,
10648,
6734,
4900,
5042,
7960,
15542,
28502,
44002,
56267,
57655,
49898,
35899,
21988,
12091,
6516,
3863,
2663,
2214,
1923,
1753,
1672,
1718,
1970,
2735,
4483,
7837,
12635,
16753,
18792,
17034,
12767,
8245,
5011,
3163,
2289,
1938,
1767,
1645,
1761,
2059,
2826,
4352,
7008,
10060,
12481,
13294,
11864,
8983,
6237,
4156,
2878,
2537,
2223,
2005,
1910,
1754,
1697,
1693,
1726,
1763,
1693,
1772,
1764,
1744,
1723,
1782,
1767,
1748,
1711,
1732,
1742,
1795,
1768,
1722,
1725,
1783,
1765,
1774,
1761,
1754,
1759,
1775,
1782,
1803,
1805,
1810,
1790,
1760,
1748,
1806,
1787,
1790,
1766,
1748,
1771,
1709,
1723,
1762,
1707,
1784,
1689,
1829,
1660,
1784,
1792,
1803,
1768,
1731,
1743,
1723,
1738,
1711,
1683,
1672,
1724,
1695,
1721,
1715,
1725,
1712,
1724,
1718,
1707,
1673,
1709,
1697,
1669,
1673,
1649,
1663,
1641,
1640,
1622,
1630,
1623,
1598,
1693,
1641,
1639,
1603,
1596,
1593,
1624,
1590,
1570,
1629,
1560,
1637,
1514,
1572,
1577,
1545,
1590,
1547,
1577,
1552,
1522,
1602,
1536,
1565,
1544,
1511,
1545,
1511,
1563,
1623,
1782,
2188,
2892,
4292,
6445,
9347,
12796,
15970,
17866,
17999,
16419,
13401,
10086,
6945,
4549,
2990,
2116,
1759,
1550,
1368,
1454,
1417,
1466,
1607,
1671,
1900,
2234,
2593,
2885,
3236,
3410,
3281,
2999,
2587,
2053,
1805,
1628,
1437,
1328,
1261,
1294,
1212,
1240,
1226,
1212,
1203,
1219,
1178,
1199,
1207,
1150,
1246,
1186,
1301,
1384,
1779,
2285,
3275,
4864,
6782,
8689,
10998,
12564,
12926,
12307,
10613,
8623,
6350,
4524,
3085,
2022,
1634,
1324,
1131,
1128,
1031,
1067,
1075,
1096,
1069,
1070,
1003,
1173,
1170,
1206,
1360,
1555,
1770,
2020,
2230,
2460,
2491,
2442,
2219,
1969,
1757,
1469,
1265,
1104,
1051,
964,
927,
935,
939,
888,
877,
903,
948,
842,
959,
853,
917,
826,
873,
907,
893,
913,
863,
903,
900,
847,
888,
899,
843,
860,
833,
908,
865,
861,
820,
817,
822,
806,
830,
842,
792,
787,
824,
781,
794,
815,
795,
779,
794,
791,
802,
801,
763,
794,
806,
781,
804,
766,
764,
778,
765,
759,
761,
756,
752,
739,
757,
760,
766,
745,
768,
745,
729,
718,
731,
759,
730,
723,
739,
715,
702,
700,
702,
708,
696,
682,
646,
744,
738,
695,
676,
699,
751,
709,
682,
721,
679,
699,
675,
688,
709,
691,
668,
656,
621,
604,
662,
645,
626,
681,
672,
658,
688,
660,
617,
629,
615,
651,
618,
626,
625,
642,
607,
564,
594,
630,
608,
591,
563,
594,
583,
580,
628,
641,
628,
594,
616,
567,
598,
571,
627,
591,
593,
547,
584,
535,
544,
613,
603,
564,
550,
571,
571,
560,
548,
543,
543,
534,
581,
533,
622,
554,
540,
579,
584,
591,
571,
611,
573,
579,
518,
499,
543,
529,
500,
522,
539,
513,
517,
500,
493,
505,
518,
490,
512,
499,
523,
451,
529,
456,
472,
497,
503,
482,
460,
480,
457,
425,
487,
452,
491,
477,
460,
502,
456,
463,
445,
463,
476,
511,
495,
470,
442,
483,
470,
521,
510,
451,
464,
454,
441,
456,
460,
437,
434,
394,
432,
446,
455,
515,
603,
686,
880,
1060,
1378,
1784,
2362,
3059,
3731,
4238,
4708,
5057,
5031,
4817,
4336,
3838,
3166,
2530,
2021,
1415,
1027,
834,
706,
569,
490,
446,
408,
386,
399,
432,
390,
398,
393,
406,
387,
445,
388,
390,
392,
422,
384,
381,
362,
370,
397,
396,
354,
376,
349,
371,
412,
367,
378,
348,
393,
342,
364,
391,
353,
355,
372,
379,
395,
447,
384,
405,
456,
517,
605,
684,
791,
810,
874,
941,
1050,
915,
918,
891,
842,
702,
713,
664,
758,
779,
982,
1269,
1656,
2289,
2904,
3733,
4601,
5342,
6091,
6581,
6834,
6642,
6366,
5779,
5031,
4108,
3236,
2591,
1946,
1388,
1053,
764,
537,
462,
412,
320,
337,
317,
286,
279,
297,
300,
263,
293,
283,
310,
305,
296,
288,
300,
296,
331,
268,
291,
271,
293,
303,
293,
290,
278,
277,
268,
257,
277,
286,
298,
285,
258,
276,
282,
270,
262,
301,
259,
268,
258,
233,
294,
282,
292,
279,
271,
315,
353,
401,
467,
505,
562,
698,
775,
930,
1020,
1128,
1082,
1119,
1091,
976,
950,
858,
726,
579,
497,
388,
397,
340,
306,
249,
270,
248,
228,
230,
239,
222,
219,
208,
188,
223,
215,
214,
221,
200,
195,
227,
205,
205,
203,
226,
184,
193,
219,
207,
196,
202,
240,
215,
226,
189,
164,
201,
212,
192,
205,
196,
183,
174,
170,
174,
182,
172,
162,
194,
208,
192,
184,
187,
187,
163,
156,
187,
166,
168,
176,
173,
177,
170,
196,
177,
175,
175,
166,
183,
150,
169,
209,
159,
159,
171,
170,
170,
156,
186,
167,
151,
171,
171,
150,
169,
142,
179,
184,
172,
144,
179,
153,
164,
137,
161,
160,
159,
133,
151,
127,
136,
152,
180,
124,
142,
149,
130,
156,
147,
135,
144,
142,
152,
144,
140,
133,
149,
129,
145,
138,
148,
140,
119,
153,
151,
147,
130,
127,
141,
119,
127,
109,
111,
150,
115,
159,
108,
111,
149,
155,
131,
117,
130,
138,
126,
147,
124,
104,
134,
126,
121,
119,
109,
115,
99,
116,
111,
112,
98,
134,
128,
121,
112,
106,
88,
96,
101,
112,
98,
108,
102,
103,
120,
100,
98,
107,
90,
109,
94,
103,
104,
110,
97,
89,
107,
118,
100,
95,
98,
97,
105,
113,
89,
107,
117,
107,
81,
93,
93,
76,
88,
87,
113,
82,
95,
93,
86,
91,
89,
82,
83,
103,
82,
83,
84,
80,
73,
89,
73,
71,
84,
82,
82,
72,
73,
100,
68,
76,
86,
90,
86,
79,
91,
82,
67,
71,
75,
81,
83,
74,
82,
67,
71,
73,
81,
91,
70,
88,
64,
69,
56,
91,
64,
63,
69,
72,
55,
69,
76,
76,
51,
62,
64,
71,
66,
73,
77,
59,
69,
74,
67,
58,
64,
64,
62,
71,
60,
53,
62,
53,
71,
59,
44,
59,
55,
57,
60,
58,
54,
59,
58,
63,
47,
52,
51,
59,
47,
56,
52,
56,
43,
50,
55,
43,
48,
53,
50,
42,
52,
37,
57,
55,
47,
47,
30,
54,
42,
45,
43,
44,
61,
54,
43,
63,
44,
44,
39,
39,
37,
59,
32,
51,
36,
47,
39,
41,
41,
38,
41,
41,
47,
38,
36,
38,
44,
40,
40,
51,
39,
46,
33,
45,
36,
48,
38,
32,
39,
40,
29,
31,
31,
42,
35,
24,
34,
27,
32,
31,
25,
37,
35,
24,
32,
29,
42,
32,
36,
35,
24,
36,
29,
27,
32,
22,
23,
36,
25,
36,
36,
25,
25,
32,
28,
34,
19,
25,
22,
27,
13,
27,
34,
22,
24,
24,
22,
36,
25,
26,
26,
27,
19,
23,
24,
14,
22,
23,
21,
16,
22,
22,
28,
22,
31,
21,
14,
25,
22,
22,
21,
20,
23,
23,
18,
18,
10,
23,
18,
25,
15,
17,
22,
19,
21,
19,
20,
19,
7,
16,
18,
16,
11,
13,
14,
20,
22,
11,
13,
16,
10,
20,
12,
15,
12,
17,
14,
11,
12,
17,
20,
14,
10,
14,
8,
11,
7,
16,
13,
15,
9,
17,
6,
11,
11,
11,
13,
12,
10,
15,
14,
13,
18,
19,
9,
4,
10,
8,
12,
12,
10,
8,
6,
7,
11,
9,
12,
14,
6,
8,
6,
2,
3,
8,
4,
6,
10,
9,
9,
8,
4,
7,
5,
5,
7,
10,
8,
9,
1,
4,
3,
3,
3,
6,
3,
6,
4,
4,
5,
5,
7,
6,
10,
4,
6,
4,
6,
5,
7,
2,
2,
4,
5,
4,
5,
7,
1,
4,
1,
3,
2,
4,
4,
2,
2,
3,
6,
2,
2,
1,
2,
0,
0,
5,
4,
2,
1,
0,
0,
1,
0,
0,
1,
1,
1,
0,
0,
1,
0,
1,
0,
0,
2,
0,
0,
0,
0,
0,
#ENDOFDATA   :