File: data/exp_raw/ADM6005a spectra/ADM-6005a_4.msa
#FORMAT      : EMSA/MAS Spectral Data File
#VERSION     : 1.0
#TITLE       : Bruker Nano spectrum Acquisition
#DATE        : 12-JUL-2019
#TIME        : 09:42
#OWNER       : Bruker Nano
#NPOINTS     : 4096
#NCOLUMNS    : 1
#XUNITS      : eV
#YUNITS      : counts
#DATATYPE    : Y
#XPERCHAN    : 5.01716
#OFFSET      : -484.208
#BEAMKV      : 20
#SIGNALTYPE  : EDS
#ELEVANGLE   : 40
#AZIMANGLE   : 45
#LIVETIME    : 100.001
#REALTIME    : 112.169
#PROBECUR    : 5
#TAUWIND     : 0
#TDEADLYR    : 0
#TACTLYR     : 0.045
#TALWIND     : 0.004
#CHOFFSET    : 0.0
#XLABEL      : Energy (eV)
#YLABEL      : Counts
#EDSDET      : SDUTW
##DET_HASH   : c6370f9e-cc72-7559-f57e-203d75c8942b
##CALIB_HASH : b2d706fe-df19-4747-f399-990df6ef62be
##SAMPLE     : <BulkSample id="1">\n<mOrientation id="2">\n<double>0.0</double>\n<double>0.0</double>\n<double>-1.0</double>\n</mOrientation>\n</BulkSample>
#SPECTRUM    :
0,
0,
0,
0,
0,
0,
0,
0,
0,
0,
0,
0,
0,
0,
0,
0,
0,
1,
0,
3,
3,
8,
18,
10,
18,
17,
18,
121,
1504,
11164,
46716,
105508,
127962,
84574,
30287,
5884,
722,
74,
18,
0,
26,
276,
258,
280,
303,
309,
397,
663,
1186,
2015,
2671,
2577,
1637,
928,
621,
591,
707,
844,
970,
1027,
1132,
1405,
1983,
3739,
8454,
17266,
27686,
31082,
24472,
13644,
5474,
1987,
969,
685,
819,
777,
882,
956,
975,
1099,
1157,
1193,
1251,
1282,
1370,
1451,
1589,
1727,
1997,
2333,
2765,
2850,
2941,
2885,
2840,
3635,
5691,
10100,
16394,
22057,
24204,
21601,
16101,
10626,
6836,
4897,
4916,
7845,
15277,
28299,
44298,
55754,
58167,
49714,
36182,
22241,
12059,
6509,
3907,
2690,
2193,
1918,
1737,
1686,
1814,
1993,
2773,
4517,
7777,
12610,
16782,
18580,
16915,
12801,
8243,
5047,
3257,
2325,
1926,
1768,
1731,
1732,
2041,
2768,
4426,
7000,
10130,
12589,
13291,
11836,
9123,
6196,
4076,
2990,
2418,
2182,
2031,
1935,
1829,
1661,
1679,
1740,
1734,
1725,
1765,
1711,
1725,
1730,
1732,
1719,
1701,
1711,
1755,
1780,
1747,
1816,
1754,
1794,
1774,
1782,
1776,
1779,
1748,
1757,
1790,
1772,
1775,
1779,
1762,
1773,
1745,
1732,
1760,
1740,
1764,
1765,
1754,
1778,
1800,
1793,
1742,
1846,
1844,
1790,
1727,
1788,
1738,
1753,
1786,
1757,
1769,
1732,
1775,
1737,
1709,
1722,
1721,
1744,
1795,
1752,
1719,
1753,
1714,
1706,
1691,
1711,
1684,
1685,
1659,
1659,
1694,
1709,
1644,
1617,
1680,
1614,
1623,
1667,
1625,
1665,
1631,
1630,
1600,
1656,
1642,
1592,
1660,
1575,
1566,
1604,
1609,
1580,
1504,
1500,
1496,
1540,
1526,
1489,
1516,
1473,
1572,
1502,
1501,
1483,
1496,
1507,
1527,
1507,
1638,
1781,
2126,
2876,
4306,
6594,
9377,
12822,
16093,
17793,
17748,
16258,
13171,
9922,
6933,
4498,
3000,
2228,
1716,
1556,
1468,
1386,
1507,
1521,
1601,
1734,
1934,
2263,
2579,
2973,
3351,
3368,
3215,
2980,
2523,
2197,
1793,
1570,
1411,
1337,
1251,
1241,
1217,
1234,
1220,
1208,
1202,
1216,
1210,
1181,
1173,
1180,
1217,
1237,
1313,
1444,
1767,
2308,
3220,
4769,
6706,
9005,
10932,
12553,
12968,
12278,
10551,
8535,
6372,
4468,
3117,
2099,
1605,
1295,
1184,
1103,
1062,
1111,
1084,
1059,
1142,
1085,
1103,
1123,
1201,
1266,
1378,
1559,
1729,
2038,
2228,
2410,
2482,
2433,
2209,
1969,
1718,
1486,
1288,
1115,
1017,
1006,
903,
936,
938,
928,
936,
930,
926,
871,
896,
861,
881,
910,
919,
873,
949,
866,
857,
912,
908,
889,
884,
899,
825,
845,
908,
871,
889,
832,
818,
853,
822,
839,
830,
789,
835,
799,
816,
804,
805,
799,
792,
832,
798,
798,
780,
789,
809,
769,
781,
784,
767,
832,
795,
796,
808,
786,
706,
784,
785,
749,
761,
729,
770,
719,
770,
730,
732,
713,
737,
722,
736,
740,
769,
696,
684,
736,
658,
746,
673,
739,
769,
720,
756,
737,
695,
718,
759,
721,
741,
748,
706,
741,
690,
672,
746,
631,
652,
639,
679,
687,
636,
676,
651,
660,
656,
623,
624,
663,
631,
644,
621,
605,
646,
602,
609,
614,
629,
633,
581,
609,
612,
642,
602,
632,
597,
623,
590,
626,
609,
592,
579,
569,
625,
643,
549,
567,
583,
614,
585,
581,
579,
580,
576,
556,
592,
579,
552,
554,
561,
550,
541,
583,
578,
556,
616,
564,
557,
624,
566,
568,
625,
577,
572,
526,
566,
555,
537,
571,
479,
526,
525,
518,
561,
505,
478,
516,
484,
519,
472,
502,
482,
522,
487,
533,
451,
476,
500,
508,
487,
485,
460,
528,
495,
487,
472,
482,
488,
499,
465,
467,
455,
494,
480,
439,
468,
469,
445,
500,
499,
462,
481,
489,
434,
485,
479,
491,
455,
518,
474,
460,
516,
459,
444,
526,
572,
699,
837,
1051,
1394,
1807,
2467,
2975,
3683,
4195,
4648,
4983,
5077,
4848,
4410,
3690,
3132,
2521,
1954,
1462,
1074,
842,
682,
577,
489,
407,
419,
435,
381,
403,
385,
417,
375,
389,
412,
395,
384,
411,
409,
362,
392,
378,
397,
390,
370,
366,
393,
386,
410,
370,
349,
362,
378,
381,
380,
361,
373,
400,
366,
360,
369,
376,
405,
388,
409,
413,
486,
549,
569,
669,
788,
896,
924,
965,
975,
935,
915,
836,
744,
750,
646,
646,
674,
816,
1003,
1281,
1725,
2245,
3014,
3773,
4652,
5386,
6121,
6478,
6880,
6693,
6318,
5668,
4960,
4124,
3323,
2454,
1849,
1382,
1025,
703,
563,
421,
380,
351,
294,
302,
307,
288,
301,
272,
269,
290,
293,
320,
269,
259,
279,
272,
277,
278,
281,
289,
265,
302,
260,
298,
274,
301,
264,
253,
263,
278,
263,
267,
269,
293,
270,
280,
293,
261,
250,
228,
243,
239,
262,
271,
301,
290,
283,
302,
304,
333,
394,
435,
496,
549,
720,
743,
916,
996,
1130,
1081,
1114,
1081,
1019,
915,
846,
683,
598,
513,
412,
389,
352,
298,
258,
229,
278,
240,
212,
201,
229,
217,
204,
211,
208,
215,
199,
219,
212,
212,
212,
192,
203,
220,
227,
226,
198,
197,
200,
222,
222,
204,
221,
202,
201,
221,
196,
183,
197,
205,
197,
179,
190,
192,
174,
203,
183,
186,
167,
199,
187,
178,
179,
181,
170,
203,
162,
161,
168,
160,
186,
220,
184,
184,
193,
170,
185,
179,
177,
171,
160,
161,
158,
192,
176,
135,
164,
155,
141,
142,
166,
135,
152,
140,
149,
152,
134,
149,
161,
141,
164,
166,
169,
166,
156,
160,
159,
151,
138,
172,
138,
153,
157,
163,
171,
159,
131,
153,
152,
157,
151,
128,
164,
147,
140,
117,
139,
153,
152,
146,
138,
147,
155,
139,
125,
138,
148,
116,
135,
150,
129,
111,
121,
133,
128,
132,
133,
129,
137,
129,
107,
110,
107,
110,
119,
148,
119,
130,
121,
115,
116,
114,
114,
99,
100,
137,
136,
115,
102,
125,
108,
83,
106,
105,
110,
111,
122,
106,
116,
121,
97,
108,
138,
97,
104,
107,
100,
106,
97,
105,
84,
103,
92,
95,
102,
92,
113,
99,
100,
114,
112,
86,
109,
98,
92,
95,
68,
83,
104,
88,
81,
86,
107,
97,
76,
98,
109,
83,
113,
89,
76,
99,
79,
93,
97,
88,
72,
86,
84,
81,
83,
81,
71,
78,
66,
92,
84,
86,
76,
82,
87,
64,
78,
78,
75,
72,
83,
64,
75,
74,
68,
70,
67,
76,
75,
59,
82,
70,
65,
70,
59,
74,
55,
82,
73,
71,
71,
77,
65,
70,
65,
60,
83,
70,
61,
68,
73,
68,
66,
53,
59,
52,
60,
63,
74,
67,
61,
46,
52,
69,
46,
47,
44,
60,
65,
40,
43,
62,
59,
44,
57,
49,
61,
51,
62,
54,
48,
55,
47,
48,
40,
62,
55,
50,
49,
58,
48,
49,
51,
34,
44,
43,
44,
30,
42,
59,
48,
51,
54,
49,
52,
55,
46,
40,
51,
45,
47,
47,
38,
38,
51,
41,
48,
46,
46,
43,
48,
41,
49,
34,
49,
51,
33,
45,
50,
41,
39,
57,
31,
38,
39,
36,
42,
34,
33,
44,
32,
34,
45,
40,
31,
23,
40,
35,
51,
38,
42,
33,
28,
36,
33,
40,
39,
35,
34,
37,
28,
28,
29,
24,
25,
25,
29,
40,
34,
27,
29,
35,
24,
27,
32,
30,
24,
23,
22,
21,
33,
36,
20,
31,
28,
27,
22,
32,
17,
22,
25,
32,
27,
22,
26,
23,
19,
23,
24,
24,
26,
23,
26,
21,
19,
25,
21,
23,
23,
20,
21,
12,
23,
22,
21,
18,
24,
15,
23,
18,
25,
27,
21,
20,
18,
29,
13,
20,
21,
14,
20,
22,
11,
13,
10,
21,
18,
16,
10,
15,
18,
13,
20,
11,
17,
16,
18,
19,
14,
16,
13,
9,
15,
11,
20,
14,
16,
9,
15,
10,
15,
10,
12,
12,
11,
16,
13,
6,
12,
11,
14,
10,
11,
11,
8,
9,
7,
10,
12,
8,
10,
14,
3,
10,
13,
8,
7,
10,
9,
9,
3,
10,
15,
5,
14,
5,
9,
7,
5,
8,
2,
11,
8,
6,
8,
2,
8,
9,
14,
5,
7,
8,
4,
9,
6,
4,
6,
8,
4,
7,
1,
3,
3,
1,
4,
1,
4,
6,
3,
5,
2,
3,
5,
2,
3,
1,
6,
0,
4,
3,
3,
1,
1,
2,
1,
1,
5,
1,
3,
4,
2,
0,
0,
0,
0,
0,
1,
1,
0,
3,
5,
0,
4,
6,
1,
1,
1,
2,
1,
0,
0,
0,
2,
0,
0,
0,
0,
0,
0,
0,
#ENDOFDATA   :