File: data/exp_raw/ADM6005a spectra/ADM-6005a_14.msa
#FORMAT      : EMSA/MAS Spectral Data File
#VERSION     : 1.0
#TITLE       : Bruker Nano spectrum Acquisition
#DATE        : 12-JUL-2019
#TIME        : 10:09
#OWNER       : Bruker Nano
#NPOINTS     : 4096
#NCOLUMNS    : 1
#XUNITS      : eV
#YUNITS      : counts
#DATATYPE    : Y
#XPERCHAN    : 5.01716
#OFFSET      : -484.208
#BEAMKV      : 20
#SIGNALTYPE  : EDS
#ELEVANGLE   : 40
#AZIMANGLE   : 45
#LIVETIME    : 100.001
#REALTIME    : 112.157
#PROBECUR    : 5
#TAUWIND     : 0
#TDEADLYR    : 0
#TACTLYR     : 0.045
#TALWIND     : 0.004
#CHOFFSET    : 0.0
#XLABEL      : Energy (eV)
#YLABEL      : Counts
#EDSDET      : SDUTW
##DET_HASH   : c6370f9e-cc72-7559-f57e-203d75c8942b
##CALIB_HASH : b2d706fe-df19-4747-f399-990df6ef62be
##SAMPLE     : <BulkSample id="1">\n<mOrientation id="2">\n<double>0.0</double>\n<double>0.0</double>\n<double>-1.0</double>\n</mOrientation>\n</BulkSample>
#SPECTRUM    :
0,
0,
0,
0,
0,
0,
0,
0,
0,
0,
0,
0,
0,
0,
0,
0,
0,
0,
0,
5,
9,
8,
8,
7,
6,
12,
17,
136,
1558,
11122,
46657,
105603,
129175,
85337,
30264,
5893,
689,
61,
12,
0,
18,
303,
275,
256,
300,
347,
445,
692,
1178,
1978,
2669,
2522,
1666,
931,
607,
612,
684,
882,
990,
1009,
1134,
1440,
2004,
3722,
8339,
17508,
27554,
31070,
24315,
13542,
5518,
1868,
931,
741,
754,
798,
847,
928,
992,
1073,
1124,
1184,
1225,
1280,
1311,
1445,
1579,
1701,
2020,
2378,
2704,
2792,
2911,
2772,
2783,
3581,
5700,
10217,
16204,
22020,
24040,
21539,
16109,
10511,
6715,
4939,
4971,
8079,
15462,
28852,
44191,
56220,
58005,
49825,
35737,
22036,
12006,
6408,
3718,
2746,
2260,
1901,
1769,
1740,
1756,
1915,
2684,
4520,
7720,
12515,
16847,
18541,
16815,
12751,
8309,
4964,
3227,
2332,
1956,
1736,
1660,
1740,
2046,
2833,
4325,
6906,
10136,
12561,
13303,
11902,
9083,
6136,
4198,
2896,
2549,
2199,
2025,
1802,
1748,
1722,
1640,
1798,
1701,
1708,
1751,
1736,
1753,
1775,
1754,
1737,
1750,
1798,
1786,
1742,
1744,
1771,
1778,
1816,
1774,
1763,
1786,
1708,
1782,
1738,
1770,
1763,
1768,
1775,
1806,
1832,
1801,
1742,
1840,
1763,
1770,
1739,
1789,
1759,
1727,
1789,
1755,
1796,
1753,
1713,
1807,
1783,
1765,
1775,
1783,
1753,
1793,
1769,
1720,
1696,
1698,
1712,
1718,
1724,
1724,
1734,
1732,
1738,
1728,
1750,
1702,
1702,
1741,
1707,
1676,
1656,
1714,
1687,
1624,
1688,
1644,
1653,
1612,
1656,
1691,
1655,
1581,
1660,
1654,
1645,
1628,
1589,
1676,
1596,
1605,
1526,
1530,
1594,
1535,
1599,
1530,
1539,
1582,
1577,
1558,
1528,
1513,
1534,
1490,
1515,
1581,
1502,
1519,
1599,
1689,
1820,
2191,
2938,
4274,
6483,
9382,
12891,
15946,
17699,
18061,
16434,
13342,
9984,
6856,
4466,
2944,
2132,
1713,
1608,
1393,
1423,
1437,
1507,
1544,
1715,
1892,
2267,
2622,
3034,
3201,
3326,
3234,
2909,
2589,
2166,
1785,
1570,
1418,
1294,
1252,
1241,
1226,
1216,
1211,
1192,
1197,
1225,
1192,
1233,
1208,
1169,
1211,
1236,
1291,
1451,
1793,
2388,
3285,
4903,
6638,
8932,
10947,
12526,
12818,
12294,
10749,
8563,
6345,
4628,
3085,
2117,
1592,
1275,
1204,
1153,
1079,
1072,
1034,
1082,
1068,
1119,
1073,
1083,
1165,
1232,
1360,
1578,
1824,
1975,
2241,
2446,
2451,
2431,
2256,
1970,
1715,
1534,
1325,
1165,
1022,
961,
927,
904,
945,
891,
967,
931,
931,
898,
937,
909,
886,
901,
855,
888,
900,
875,
859,
872,
852,
862,
860,
879,
887,
860,
904,
872,
826,
822,
773,
804,
836,
825,
899,
820,
813,
786,
854,
823,
795,
812,
783,
768,
797,
775,
813,
779,
777,
752,
775,
742,
782,
766,
790,
758,
757,
756,
772,
773,
753,
742,
724,
764,
782,
729,
743,
723,
754,
726,
744,
721,
733,
702,
723,
755,
694,
686,
715,
752,
704,
731,
671,
687,
732,
710,
687,
711,
731,
710,
710,
677,
713,
715,
673,
703,
695,
672,
677,
659,
635,
646,
608,
685,
614,
696,
685,
636,
683,
591,
642,
639,
655,
632,
628,
574,
609,
646,
650,
660,
608,
599,
620,
626,
626,
636,
622,
599,
594,
555,
652,
565,
596,
582,
562,
582,
578,
601,
619,
635,
555,
575,
566,
597,
550,
559,
564,
584,
561,
552,
550,
598,
549,
572,
574,
516,
593,
651,
582,
550,
581,
568,
566,
579,
561,
625,
504,
548,
469,
521,
505,
539,
514,
506,
505,
499,
531,
460,
500,
517,
465,
505,
514,
495,
523,
532,
529,
514,
506,
508,
491,
488,
480,
458,
492,
486,
484,
495,
445,
466,
475,
442,
475,
480,
472,
479,
484,
491,
478,
467,
441,
478,
437,
479,
437,
475,
476,
488,
469,
445,
460,
470,
488,
427,
450,
536,
564,
689,
805,
1064,
1441,
1869,
2385,
3013,
3610,
4196,
4690,
5017,
5008,
4670,
4340,
3807,
3131,
2466,
2013,
1459,
1133,
862,
668,
560,
459,
463,
408,
424,
408,
392,
421,
401,
417,
388,
381,
375,
365,
405,
341,
425,
393,
357,
411,
399,
407,
358,
369,
356,
387,
386,
390,
358,
377,
375,
400,
356,
362,
387,
381,
368,
385,
375,
419,
420,
438,
420,
476,
550,
598,
713,
794,
888,
923,
991,
940,
926,
915,
827,
845,
714,
671,
668,
733,
783,
916,
1302,
1763,
2234,
3066,
3690,
4584,
5475,
6082,
6521,
6828,
6805,
6345,
5822,
5059,
4123,
3163,
2616,
1831,
1376,
1025,
738,
562,
463,
367,
391,
320,
315,
289,
276,
277,
316,
281,
254,
298,
297,
310,
293,
281,
286,
299,
291,
289,
298,
277,
254,
273,
274,
253,
261,
268,
233,
282,
269,
261,
261,
281,
290,
270,
269,
277,
281,
272,
266,
300,
271,
300,
282,
287,
294,
303,
302,
298,
332,
383,
463,
522,
605,
732,
815,
880,
998,
1110,
1138,
1148,
1071,
1048,
968,
818,
677,
596,
511,
415,
376,
297,
285,
222,
250,
224,
215,
231,
223,
208,
228,
243,
201,
227,
197,
226,
202,
193,
209,
184,
179,
219,
219,
213,
200,
220,
198,
204,
194,
192,
198,
198,
207,
170,
184,
165,
196,
179,
198,
190,
194,
192,
194,
183,
180,
202,
188,
218,
193,
196,
175,
190,
179,
186,
159,
192,
175,
195,
185,
182,
183,
168,
144,
175,
148,
179,
179,
162,
177,
166,
168,
161,
170,
167,
190,
157,
138,
192,
140,
157,
154,
172,
142,
177,
167,
155,
139,
156,
160,
147,
156,
165,
150,
148,
159,
150,
153,
153,
122,
150,
132,
159,
161,
147,
154,
156,
133,
152,
159,
138,
144,
145,
137,
125,
150,
142,
143,
142,
133,
125,
135,
137,
121,
147,
136,
130,
131,
129,
114,
131,
107,
154,
143,
141,
141,
126,
140,
128,
137,
132,
116,
106,
99,
130,
106,
145,
131,
108,
101,
126,
119,
114,
114,
117,
121,
128,
120,
120,
96,
107,
125,
85,
94,
100,
125,
117,
101,
117,
109,
122,
106,
98,
104,
107,
121,
107,
106,
95,
102,
87,
108,
120,
103,
107,
90,
101,
100,
99,
85,
99,
88,
77,
116,
101,
99,
106,
99,
84,
90,
85,
100,
89,
76,
100,
92,
98,
93,
82,
84,
98,
92,
100,
87,
85,
78,
86,
90,
93,
92,
92,
60,
101,
86,
82,
77,
78,
78,
86,
79,
76,
82,
75,
74,
67,
70,
75,
84,
74,
76,
61,
68,
64,
53,
69,
63,
84,
67,
66,
64,
80,
67,
69,
73,
72,
61,
69,
70,
70,
56,
75,
59,
61,
64,
62,
54,
83,
61,
57,
67,
65,
67,
58,
70,
65,
58,
55,
62,
61,
74,
56,
59,
56,
57,
65,
59,
64,
60,
58,
66,
41,
69,
60,
51,
66,
52,
51,
60,
50,
50,
69,
52,
47,
46,
59,
48,
58,
44,
44,
40,
47,
46,
34,
62,
44,
49,
45,
66,
43,
43,
53,
40,
52,
38,
49,
41,
47,
49,
41,
45,
39,
63,
44,
38,
43,
38,
44,
46,
47,
49,
38,
35,
43,
37,
45,
31,
55,
40,
30,
41,
46,
46,
41,
39,
39,
27,
40,
30,
40,
35,
19,
37,
28,
34,
41,
37,
27,
29,
39,
31,
41,
32,
33,
25,
23,
44,
33,
34,
40,
43,
50,
25,
27,
28,
28,
32,
23,
29,
26,
27,
38,
30,
23,
24,
34,
39,
19,
24,
22,
18,
22,
19,
20,
23,
27,
22,
26,
29,
31,
27,
21,
21,
26,
18,
14,
28,
20,
21,
25,
24,
23,
23,
16,
25,
21,
15,
19,
16,
14,
22,
21,
25,
23,
15,
18,
23,
9,
20,
18,
15,
20,
17,
17,
20,
16,
19,
13,
22,
15,
15,
21,
19,
17,
16,
14,
17,
16,
14,
10,
9,
18,
9,
18,
16,
9,
16,
21,
11,
18,
12,
12,
17,
11,
10,
10,
13,
15,
7,
15,
11,
13,
14,
13,
10,
7,
7,
5,
10,
3,
9,
9,
4,
12,
13,
11,
19,
10,
15,
10,
7,
4,
7,
8,
13,
10,
6,
7,
15,
13,
12,
5,
9,
12,
7,
14,
9,
5,
12,
7,
9,
5,
4,
7,
9,
5,
5,
2,
1,
5,
6,
12,
4,
5,
6,
5,
3,
1,
3,
9,
8,
7,
5,
3,
4,
4,
8,
4,
6,
6,
4,
4,
6,
2,
4,
6,
3,
6,
4,
0,
2,
7,
3,
4,
7,
2,
4,
1,
4,
1,
2,
2,
2,
1,
0,
1,
0,
0,
3,
5,
6,
1,
0,
0,
1,
1,
0,
0,
0,
0,
1,
1,
0,
0,
0,
1,
0,
#ENDOFDATA   :