File: data/exp_raw/ADM6005a spectra/ADM-6005a_9.msa
#FORMAT      : EMSA/MAS Spectral Data File
#VERSION     : 1.0
#TITLE       : Bruker Nano spectrum Acquisition
#DATE        : 12-JUL-2019
#TIME        : 09:57
#OWNER       : Bruker Nano
#NPOINTS     : 4096
#NCOLUMNS    : 1
#XUNITS      : eV
#YUNITS      : counts
#DATATYPE    : Y
#XPERCHAN    : 5.01716
#OFFSET      : -484.208
#BEAMKV      : 20
#SIGNALTYPE  : EDS
#ELEVANGLE   : 40
#AZIMANGLE   : 45
#LIVETIME    : 100.001
#REALTIME    : 112.184
#PROBECUR    : 5
#TAUWIND     : 0
#TDEADLYR    : 0
#TACTLYR     : 0.045
#TALWIND     : 0.004
#CHOFFSET    : 0.0
#XLABEL      : Energy (eV)
#YLABEL      : Counts
#EDSDET      : SDUTW
##DET_HASH   : c6370f9e-cc72-7559-f57e-203d75c8942b
##CALIB_HASH : b2d706fe-df19-4747-f399-990df6ef62be
##SAMPLE     : <BulkSample id="1">\n<mOrientation id="2">\n<double>0.0</double>\n<double>0.0</double>\n<double>-1.0</double>\n</mOrientation>\n</BulkSample>
#SPECTRUM    :
0,
0,
0,
0,
0,
0,
0,
0,
0,
0,
0,
0,
0,
0,
0,
0,
0,
1,
1,
5,
7,
17,
11,
14,
10,
18,
12,
126,
1466,
11104,
46696,
105095,
128914,
84708,
30303,
6023,
698,
68,
13,
0,
21,
310,
255,
309,
259,
355,
446,
667,
1167,
2011,
2678,
2508,
1670,
899,
593,
613,
710,
909,
943,
1063,
1145,
1382,
1999,
3709,
8535,
17351,
27536,
31276,
24512,
13408,
5405,
1904,
885,
715,
775,
791,
845,
950,
989,
1054,
1127,
1190,
1221,
1286,
1346,
1448,
1541,
1672,
1943,
2402,
2659,
2851,
2886,
2738,
2892,
3570,
5662,
10136,
16429,
22013,
23966,
21597,
16341,
10504,
6746,
4887,
5121,
8006,
15441,
28513,
44093,
55655,
57987,
49933,
35795,
22039,
12119,
6704,
3855,
2741,
2228,
1934,
1759,
1822,
1714,
1939,
2722,
4510,
7763,
12701,
17068,
18556,
16935,
12681,
8290,
5085,
3155,
2327,
1938,
1776,
1703,
1781,
2053,
2741,
4391,
7034,
10155,
12638,
13303,
11884,
9101,
6164,
4078,
2938,
2391,
2155,
2084,
1855,
1754,
1683,
1721,
1673,
1686,
1731,
1742,
1772,
1767,
1704,
1740,
1738,
1703,
1735,
1726,
1722,
1823,
1799,
1783,
1788,
1772,
1748,
1788,
1777,
1726,
1756,
1716,
1760,
1745,
1775,
1802,
1768,
1775,
1763,
1792,
1822,
1750,
1784,
1751,
1741,
1755,
1775,
1788,
1681,
1764,
1771,
1824,
1792,
1756,
1775,
1761,
1802,
1746,
1755,
1751,
1712,
1725,
1722,
1811,
1746,
1704,
1757,
1704,
1688,
1693,
1732,
1731,
1687,
1699,
1691,
1732,
1677,
1702,
1705,
1674,
1626,
1683,
1686,
1661,
1701,
1671,
1621,
1683,
1619,
1619,
1606,
1637,
1635,
1606,
1582,
1561,
1633,
1560,
1606,
1542,
1572,
1592,
1562,
1516,
1541,
1565,
1512,
1479,
1518,
1606,
1532,
1500,
1527,
1504,
1574,
1672,
1782,
2209,
2922,
4294,
6414,
9455,
12809,
16048,
17894,
17975,
16370,
13249,
9943,
6931,
4537,
2963,
2040,
1759,
1492,
1415,
1481,
1445,
1529,
1562,
1676,
1962,
2219,
2564,
2987,
3157,
3271,
3268,
2883,
2567,
2153,
1804,
1571,
1371,
1328,
1268,
1232,
1214,
1202,
1179,
1202,
1209,
1186,
1186,
1221,
1205,
1186,
1236,
1240,
1292,
1520,
1765,
2327,
3370,
4848,
6742,
8903,
11034,
12570,
12837,
12388,
10607,
8530,
6415,
4487,
3057,
2120,
1608,
1261,
1157,
1092,
1102,
1084,
1073,
1056,
1086,
1053,
1090,
1102,
1131,
1244,
1379,
1552,
1801,
2025,
2255,
2466,
2466,
2397,
2241,
1977,
1759,
1502,
1215,
1186,
1060,
981,
960,
918,
909,
914,
906,
886,
944,
909,
866,
871,
934,
960,
883,
906,
863,
875,
880,
882,
926,
827,
875,
838,
828,
897,
856,
844,
844,
877,
825,
818,
785,
854,
820,
798,
807,
822,
796,
819,
821,
797,
778,
827,
818,
797,
832,
798,
779,
778,
770,
820,
784,
784,
773,
767,
753,
809,
743,
766,
754,
754,
746,
776,
764,
769,
766,
773,
738,
748,
747,
726,
742,
729,
745,
696,
794,
707,
670,
713,
698,
713,
667,
716,
755,
766,
680,
743,
679,
731,
701,
708,
716,
682,
695,
703,
625,
715,
642,
685,
722,
708,
663,
633,
655,
629,
647,
658,
609,
658,
643,
591,
668,
617,
658,
625,
668,
625,
649,
569,
618,
607,
635,
641,
614,
604,
624,
672,
547,
545,
596,
589,
630,
612,
623,
567,
573,
565,
588,
599,
565,
534,
635,
575,
564,
580,
556,
555,
568,
568,
525,
558,
561,
546,
566,
573,
578,
565,
571,
573,
544,
596,
554,
559,
576,
545,
618,
544,
533,
526,
521,
527,
520,
537,
471,
496,
513,
546,
507,
501,
511,
510,
530,
518,
491,
473,
505,
494,
484,
429,
483,
496,
493,
464,
479,
540,
486,
458,
448,
454,
466,
463,
509,
491,
475,
503,
496,
458,
434,
466,
475,
443,
468,
409,
477,
502,
456,
488,
471,
449,
464,
449,
501,
467,
469,
511,
592,
742,
769,
1064,
1457,
1872,
2475,
3016,
3686,
4167,
4622,
5005,
4940,
4802,
4359,
3625,
3093,
2590,
1936,
1444,
1148,
840,
624,
567,
486,
447,
408,
455,
389,
390,
415,
370,
399,
392,
392,
412,
374,
387,
364,
394,
393,
408,
371,
400,
384,
380,
389,
368,
378,
388,
385,
365,
350,
370,
372,
347,
360,
387,
353,
380,
377,
382,
409,
395,
447,
450,
512,
526,
604,
698,
795,
802,
902,
989,
888,
953,
922,
840,
748,
742,
709,
695,
682,
794,
1021,
1297,
1741,
2213,
3009,
3735,
4598,
5389,
6094,
6552,
6846,
6492,
6190,
5785,
5041,
4127,
3292,
2425,
1910,
1446,
1030,
761,
529,
463,
395,
372,
327,
305,
311,
275,
346,
312,
292,
273,
270,
311,
286,
273,
290,
317,
283,
309,
283,
267,
273,
289,
283,
274,
270,
265,
287,
264,
288,
291,
277,
266,
277,
290,
279,
275,
270,
269,
267,
232,
297,
280,
273,
265,
250,
257,
258,
277,
312,
301,
368,
383,
529,
648,
730,
779,
939,
953,
1063,
1096,
1129,
1105,
1028,
876,
822,
698,
591,
521,
432,
379,
327,
275,
267,
277,
243,
224,
210,
215,
207,
207,
207,
208,
222,
171,
197,
209,
206,
196,
165,
204,
192,
200,
204,
204,
223,
204,
210,
185,
222,
188,
194,
199,
221,
206,
228,
202,
212,
173,
193,
198,
211,
199,
195,
203,
196,
183,
195,
178,
178,
184,
178,
174,
164,
162,
181,
179,
181,
169,
164,
177,
182,
158,
186,
161,
167,
169,
180,
181,
176,
174,
150,
147,
173,
180,
140,
167,
177,
172,
155,
166,
188,
163,
170,
155,
154,
148,
155,
155,
147,
161,
165,
168,
154,
154,
150,
163,
147,
160,
149,
159,
128,
139,
140,
149,
150,
141,
133,
141,
137,
164,
124,
124,
136,
128,
132,
121,
148,
136,
135,
116,
117,
147,
134,
119,
128,
138,
128,
135,
140,
115,
127,
140,
126,
141,
98,
142,
123,
111,
117,
151,
135,
121,
134,
124,
112,
126,
119,
123,
105,
109,
123,
112,
126,
112,
121,
128,
105,
117,
125,
102,
110,
119,
91,
128,
121,
104,
109,
116,
94,
120,
101,
101,
104,
123,
82,
113,
117,
96,
95,
115,
106,
92,
111,
103,
101,
104,
105,
85,
105,
85,
106,
85,
85,
80,
93,
82,
104,
70,
99,
82,
93,
96,
97,
95,
87,
87,
66,
110,
97,
86,
87,
71,
92,
89,
75,
100,
85,
72,
76,
83,
82,
84,
75,
80,
81,
75,
94,
82,
76,
70,
87,
91,
81,
81,
62,
73,
74,
85,
81,
64,
76,
69,
79,
70,
82,
85,
73,
73,
88,
80,
81,
92,
62,
61,
76,
62,
69,
67,
73,
81,
76,
52,
65,
73,
67,
76,
58,
45,
86,
72,
60,
64,
66,
54,
76,
73,
59,
63,
71,
66,
68,
63,
63,
65,
50,
45,
61,
57,
56,
61,
51,
55,
45,
55,
58,
58,
53,
60,
41,
53,
38,
46,
46,
61,
61,
53,
64,
45,
53,
53,
40,
42,
54,
43,
40,
41,
43,
51,
68,
45,
45,
42,
48,
50,
42,
43,
46,
35,
43,
60,
29,
38,
48,
36,
49,
35,
47,
32,
45,
46,
37,
44,
41,
29,
40,
44,
46,
34,
38,
36,
37,
36,
42,
38,
50,
33,
35,
24,
31,
34,
34,
40,
44,
30,
21,
20,
28,
29,
34,
25,
26,
19,
31,
33,
39,
36,
29,
26,
27,
28,
34,
35,
35,
41,
16,
27,
33,
31,
20,
30,
30,
36,
21,
30,
28,
26,
34,
32,
28,
33,
27,
26,
19,
29,
27,
27,
29,
24,
22,
22,
22,
28,
16,
21,
19,
19,
21,
17,
12,
22,
10,
25,
26,
25,
16,
24,
19,
17,
14,
25,
19,
15,
14,
16,
22,
14,
11,
21,
24,
13,
24,
13,
16,
8,
15,
24,
20,
16,
18,
16,
15,
16,
14,
22,
15,
23,
14,
19,
17,
16,
3,
16,
11,
13,
17,
8,
10,
17,
14,
7,
16,
15,
8,
13,
12,
10,
19,
15,
16,
11,
10,
17,
24,
15,
12,
10,
12,
8,
12,
15,
6,
11,
4,
15,
6,
8,
4,
9,
2,
8,
8,
9,
10,
10,
13,
11,
9,
5,
3,
8,
4,
5,
6,
7,
6,
7,
9,
7,
4,
9,
8,
2,
0,
6,
8,
6,
3,
5,
9,
4,
5,
2,
5,
5,
6,
4,
6,
5,
3,
6,
3,
3,
1,
4,
4,
6,
3,
3,
0,
4,
5,
3,
4,
3,
2,
5,
2,
4,
2,
2,
1,
1,
2,
4,
1,
0,
0,
3,
1,
1,
2,
2,
4,
0,
0,
0,
0,
1,
2,
0,
0,
2,
0,
1,
0,
0,
1,
0,
0,
0,
0,
0,
0,
0,
#ENDOFDATA   :