File: data/exp_raw/ADM6005a spectra/ADM-6005a_15.msa
#FORMAT      : EMSA/MAS Spectral Data File
#VERSION     : 1.0
#TITLE       : Bruker Nano spectrum Acquisition
#DATE        : 12-JUL-2019
#TIME        : 10:11
#OWNER       : Bruker Nano
#NPOINTS     : 4096
#NCOLUMNS    : 1
#XUNITS      : eV
#YUNITS      : counts
#DATATYPE    : Y
#XPERCHAN    : 5.01716
#OFFSET      : -484.208
#BEAMKV      : 20
#SIGNALTYPE  : EDS
#ELEVANGLE   : 40
#AZIMANGLE   : 45
#LIVETIME    : 100.001
#REALTIME    : 112.166
#PROBECUR    : 5
#TAUWIND     : 0
#TDEADLYR    : 0
#TACTLYR     : 0.045
#TALWIND     : 0.004
#CHOFFSET    : 0.0
#XLABEL      : Energy (eV)
#YLABEL      : Counts
#EDSDET      : SDUTW
##DET_HASH   : c6370f9e-cc72-7559-f57e-203d75c8942b
##CALIB_HASH : b2d706fe-df19-4747-f399-990df6ef62be
##SAMPLE     : <BulkSample id="1">\n<mOrientation id="2">\n<double>0.0</double>\n<double>0.0</double>\n<double>-1.0</double>\n</mOrientation>\n</BulkSample>
#SPECTRUM    :
0,
0,
0,
0,
0,
0,
0,
0,
0,
0,
0,
0,
0,
0,
0,
0,
0,
1,
0,
6,
10,
18,
15,
6,
13,
17,
28,
117,
1464,
11087,
47028,
105421,
129261,
84729,
30167,
5987,
666,
50,
12,
0,
23,
293,
280,
258,
317,
345,
428,
654,
1216,
2019,
2658,
2481,
1698,
868,
642,
650,
713,
857,
948,
1052,
1156,
1396,
1994,
3679,
8424,
17410,
27562,
30990,
24370,
13613,
5379,
1861,
898,
737,
710,
774,
882,
905,
1000,
1082,
1084,
1198,
1247,
1181,
1342,
1426,
1594,
1747,
1949,
2323,
2609,
2947,
2857,
2699,
2834,
3479,
5705,
10214,
16364,
21896,
24069,
21460,
16070,
10618,
6769,
4894,
5029,
7983,
15570,
28705,
44426,
56221,
57738,
50176,
35976,
22191,
12009,
6511,
3896,
2792,
2182,
1915,
1785,
1728,
1758,
1910,
2631,
4516,
7786,
12619,
17159,
18608,
16893,
12800,
8424,
5065,
3176,
2342,
1902,
1796,
1734,
1752,
2093,
2845,
4449,
7113,
10184,
12512,
13309,
11819,
8944,
6192,
4059,
2887,
2430,
2274,
2018,
1920,
1759,
1746,
1689,
1680,
1702,
1728,
1749,
1780,
1769,
1743,
1704,
1778,
1740,
1745,
1750,
1826,
1771,
1774,
1788,
1755,
1778,
1745,
1782,
1718,
1771,
1757,
1743,
1741,
1794,
1830,
1797,
1802,
1774,
1798,
1792,
1783,
1735,
1709,
1779,
1775,
1768,
1776,
1749,
1798,
1819,
1734,
1770,
1803,
1853,
1759,
1775,
1770,
1740,
1813,
1766,
1788,
1746,
1748,
1744,
1766,
1758,
1744,
1698,
1748,
1667,
1756,
1724,
1721,
1735,
1695,
1688,
1683,
1690,
1724,
1658,
1652,
1646,
1687,
1642,
1673,
1649,
1611,
1624,
1611,
1595,
1618,
1604,
1608,
1626,
1557,
1616,
1610,
1508,
1587,
1577,
1550,
1580,
1582,
1519,
1553,
1529,
1530,
1474,
1451,
1508,
1512,
1495,
1522,
1549,
1521,
1620,
1798,
2187,
2978,
4250,
6400,
9366,
12797,
15915,
17904,
17959,
16353,
13246,
9971,
6871,
4630,
2999,
2143,
1673,
1485,
1445,
1435,
1423,
1491,
1554,
1689,
1901,
2211,
2709,
2914,
3206,
3270,
3334,
2966,
2552,
2128,
1835,
1494,
1434,
1334,
1253,
1232,
1219,
1238,
1212,
1212,
1177,
1198,
1213,
1197,
1240,
1212,
1256,
1229,
1255,
1407,
1777,
2275,
3314,
4768,
6853,
8993,
11082,
12473,
12991,
12338,
10695,
8513,
6400,
4455,
3068,
2178,
1585,
1270,
1136,
1146,
1115,
1077,
1063,
1054,
1050,
1084,
1103,
1075,
1153,
1247,
1374,
1566,
1744,
2041,
2276,
2444,
2441,
2417,
2246,
2017,
1752,
1474,
1296,
1136,
1025,
999,
980,
959,
996,
930,
922,
917,
907,
956,
893,
906,
946,
905,
895,
874,
902,
878,
902,
882,
868,
876,
917,
837,
879,
838,
872,
846,
826,
858,
831,
863,
840,
854,
828,
830,
862,
823,
816,
827,
788,
805,
774,
805,
828,
808,
790,
776,
783,
789,
785,
805,
779,
797,
769,
794,
769,
755,
756,
734,
752,
740,
804,
731,
738,
741,
765,
771,
715,
703,
688,
737,
687,
734,
694,
719,
695,
719,
696,
707,
728,
727,
719,
735,
696,
676,
704,
697,
681,
718,
744,
712,
698,
746,
710,
675,
658,
688,
665,
603,
758,
689,
666,
704,
640,
591,
605,
641,
676,
663,
686,
630,
650,
613,
637,
588,
619,
614,
632,
648,
618,
593,
689,
601,
611,
578,
611,
629,
573,
580,
594,
577,
611,
560,
586,
657,
621,
561,
616,
589,
550,
574,
584,
551,
526,
573,
591,
584,
521,
545,
521,
583,
537,
616,
598,
570,
581,
602,
606,
587,
543,
523,
557,
548,
580,
515,
550,
554,
541,
531,
497,
495,
548,
508,
499,
480,
538,
508,
519,
480,
527,
527,
495,
510,
516,
448,
484,
511,
471,
501,
453,
478,
478,
509,
484,
485,
460,
500,
466,
488,
483,
448,
465,
486,
469,
466,
467,
495,
472,
470,
459,
489,
465,
460,
473,
486,
446,
486,
488,
436,
471,
435,
424,
498,
494,
499,
602,
655,
850,
1093,
1443,
1870,
2484,
3030,
3619,
4170,
4816,
4949,
5034,
4826,
4209,
3784,
3171,
2539,
1915,
1486,
1132,
829,
654,
547,
513,
438,
404,
385,
411,
347,
405,
421,
397,
392,
397,
415,
388,
366,
370,
395,
355,
372,
387,
367,
369,
403,
370,
369,
381,
388,
408,
374,
369,
363,
401,
382,
357,
346,
383,
376,
407,
360,
408,
382,
408,
478,
532,
548,
614,
672,
753,
877,
891,
958,
996,
937,
948,
857,
767,
734,
650,
618,
680,
820,
970,
1281,
1639,
2307,
3044,
3769,
4581,
5307,
6075,
6530,
6796,
6716,
6355,
5786,
4998,
4236,
3294,
2511,
1899,
1407,
1083,
764,
580,
443,
378,
381,
315,
305,
294,
284,
296,
279,
334,
302,
278,
299,
304,
286,
300,
320,
292,
296,
293,
301,
267,
285,
269,
263,
254,
283,
277,
295,
272,
263,
260,
275,
301,
265,
244,
272,
290,
302,
282,
275,
274,
273,
285,
255,
273,
289,
254,
294,
328,
365,
405,
420,
500,
622,
706,
826,
891,
937,
1066,
1128,
1088,
1045,
992,
908,
760,
691,
573,
514,
382,
356,
334,
275,
287,
234,
225,
211,
211,
219,
209,
224,
196,
188,
200,
222,
228,
211,
227,
208,
210,
197,
195,
192,
220,
215,
176,
189,
208,
181,
226,
194,
224,
180,
217,
174,
174,
205,
192,
212,
184,
212,
187,
175,
190,
198,
179,
183,
184,
172,
226,
197,
193,
185,
202,
188,
181,
169,
175,
187,
180,
178,
169,
177,
157,
160,
151,
178,
178,
181,
175,
183,
178,
169,
179,
172,
158,
153,
162,
153,
148,
181,
186,
139,
162,
162,
164,
170,
164,
169,
149,
177,
159,
165,
172,
153,
162,
147,
191,
170,
152,
160,
150,
141,
126,
126,
162,
134,
126,
149,
117,
151,
134,
127,
128,
150,
132,
144,
136,
135,
134,
140,
163,
162,
122,
166,
144,
116,
140,
139,
134,
133,
134,
137,
108,
132,
118,
126,
122,
116,
139,
122,
116,
112,
129,
127,
122,
119,
140,
135,
111,
129,
119,
110,
111,
128,
110,
137,
131,
114,
104,
128,
125,
94,
98,
114,
106,
119,
108,
120,
107,
104,
114,
112,
103,
99,
105,
114,
119,
120,
120,
81,
120,
102,
104,
93,
107,
93,
81,
103,
98,
89,
88,
88,
89,
86,
92,
98,
97,
91,
93,
95,
84,
96,
92,
100,
105,
82,
96,
102,
100,
85,
94,
87,
96,
82,
78,
79,
77,
98,
73,
78,
75,
90,
97,
80,
89,
71,
86,
92,
70,
66,
84,
99,
90,
74,
82,
74,
88,
69,
82,
59,
70,
71,
73,
78,
81,
76,
58,
59,
82,
66,
82,
65,
68,
95,
61,
68,
71,
79,
67,
62,
57,
71,
73,
59,
67,
61,
53,
55,
59,
66,
69,
67,
67,
57,
63,
85,
39,
48,
58,
70,
58,
59,
42,
56,
49,
68,
59,
62,
56,
58,
51,
47,
55,
45,
59,
62,
57,
48,
48,
47,
51,
54,
59,
49,
57,
56,
46,
50,
42,
49,
59,
47,
49,
47,
54,
53,
47,
64,
47,
44,
46,
39,
39,
36,
48,
47,
42,
33,
37,
44,
40,
56,
37,
46,
43,
42,
38,
41,
45,
32,
34,
42,
37,
38,
60,
41,
32,
38,
29,
27,
37,
34,
31,
35,
31,
35,
29,
22,
28,
42,
43,
29,
25,
30,
23,
36,
22,
29,
30,
27,
34,
38,
30,
29,
33,
21,
35,
44,
30,
31,
31,
28,
32,
21,
25,
26,
25,
35,
21,
31,
26,
33,
31,
34,
27,
22,
28,
22,
26,
26,
28,
28,
27,
23,
33,
33,
30,
21,
25,
23,
27,
17,
24,
26,
15,
32,
26,
23,
26,
29,
19,
24,
26,
23,
17,
22,
29,
13,
20,
21,
22,
16,
17,
13,
19,
15,
24,
14,
14,
20,
23,
16,
19,
12,
20,
16,
12,
11,
12,
9,
13,
15,
13,
6,
17,
14,
13,
15,
13,
18,
14,
17,
16,
16,
19,
12,
16,
14,
20,
15,
8,
13,
19,
17,
9,
14,
11,
15,
17,
10,
14,
4,
9,
11,
4,
10,
10,
13,
10,
9,
7,
19,
5,
8,
10,
8,
7,
7,
12,
6,
7,
12,
11,
9,
8,
9,
19,
8,
11,
8,
6,
10,
6,
10,
7,
12,
7,
5,
4,
7,
8,
5,
3,
7,
2,
3,
7,
7,
8,
7,
10,
2,
0,
9,
4,
3,
8,
4,
6,
8,
3,
0,
1,
2,
3,
2,
6,
3,
0,
3,
6,
3,
6,
7,
2,
2,
2,
2,
3,
6,
3,
2,
2,
1,
4,
1,
2,
0,
0,
4,
1,
0,
6,
5,
2,
2,
1,
0,
1,
1,
1,
1,
5,
0,
1,
0,
1,
1,
0,
0,
0,
2,
0,
0,
#ENDOFDATA   :