File: data/exp_raw/ADM6005a spectra/ADM-6005a_11.msa
#FORMAT      : EMSA/MAS Spectral Data File
#VERSION     : 1.0
#TITLE       : Bruker Nano spectrum Acquisition
#DATE        : 12-JUL-2019
#TIME        : 10:01
#OWNER       : Bruker Nano
#NPOINTS     : 4096
#NCOLUMNS    : 1
#XUNITS      : eV
#YUNITS      : counts
#DATATYPE    : Y
#XPERCHAN    : 5.01716
#OFFSET      : -484.208
#BEAMKV      : 20
#SIGNALTYPE  : EDS
#ELEVANGLE   : 40
#AZIMANGLE   : 45
#LIVETIME    : 100.001
#REALTIME    : 112.069
#PROBECUR    : 5
#TAUWIND     : 0
#TDEADLYR    : 0
#TACTLYR     : 0.045
#TALWIND     : 0.004
#CHOFFSET    : 0.0
#XLABEL      : Energy (eV)
#YLABEL      : Counts
#EDSDET      : SDUTW
##DET_HASH   : c6370f9e-cc72-7559-f57e-203d75c8942b
##CALIB_HASH : b2d706fe-df19-4747-f399-990df6ef62be
##SAMPLE     : <BulkSample id="1">\n<mOrientation id="2">\n<double>0.0</double>\n<double>0.0</double>\n<double>-1.0</double>\n</mOrientation>\n</BulkSample>
#SPECTRUM    :
0,
0,
0,
0,
0,
0,
0,
0,
0,
0,
0,
0,
0,
0,
0,
0,
0,
0,
1,
6,
4,
7,
11,
10,
13,
13,
23,
143,
1469,
11196,
46459,
105612,
128420,
84689,
30365,
5965,
692,
66,
14,
1,
15,
298,
274,
294,
288,
358,
404,
644,
1149,
2003,
2681,
2534,
1709,
902,
564,
599,
695,
826,
944,
1017,
1192,
1400,
1958,
3684,
8379,
17534,
27359,
31292,
24437,
13718,
5528,
1896,
874,
754,
759,
786,
826,
940,
1003,
1084,
1133,
1190,
1263,
1277,
1352,
1386,
1504,
1749,
2075,
2315,
2743,
2852,
2795,
2863,
2809,
3552,
5674,
9865,
16285,
22056,
23820,
21475,
16068,
10519,
6690,
4858,
5038,
8132,
15693,
28331,
44061,
55926,
58207,
49944,
35932,
22095,
12308,
6476,
3757,
2742,
2132,
1818,
1755,
1730,
1799,
1982,
2779,
4456,
8005,
12547,
17094,
18605,
16800,
12716,
8264,
5010,
3176,
2335,
1945,
1801,
1676,
1740,
2014,
2817,
4410,
7061,
10167,
12592,
13360,
11911,
8934,
6260,
4116,
3048,
2378,
2212,
2031,
1843,
1710,
1622,
1696,
1644,
1733,
1739,
1705,
1832,
1791,
1783,
1768,
1767,
1781,
1738,
1754,
1781,
1781,
1778,
1772,
1781,
1756,
1756,
1785,
1827,
1733,
1748,
1777,
1751,
1769,
1762,
1736,
1758,
1774,
1762,
1750,
1756,
1775,
1765,
1700,
1769,
1807,
1806,
1768,
1769,
1830,
1771,
1815,
1793,
1730,
1836,
1740,
1775,
1774,
1784,
1755,
1704,
1712,
1718,
1731,
1752,
1767,
1714,
1713,
1748,
1701,
1675,
1727,
1681,
1647,
1704,
1733,
1661,
1707,
1636,
1655,
1727,
1646,
1692,
1559,
1616,
1662,
1613,
1673,
1579,
1608,
1684,
1587,
1595,
1568,
1629,
1619,
1557,
1586,
1614,
1555,
1535,
1573,
1540,
1556,
1461,
1562,
1542,
1521,
1537,
1528,
1516,
1519,
1536,
1533,
1558,
1633,
1817,
2186,
2971,
4277,
6406,
9380,
12686,
15976,
17757,
17822,
16389,
13520,
10076,
6800,
4627,
2959,
2139,
1743,
1508,
1471,
1408,
1449,
1496,
1615,
1711,
1947,
2205,
2632,
3047,
3152,
3232,
3217,
2972,
2550,
2135,
1791,
1517,
1374,
1300,
1251,
1224,
1237,
1239,
1206,
1209,
1245,
1169,
1203,
1186,
1189,
1181,
1217,
1226,
1345,
1430,
1790,
2340,
3277,
4838,
6679,
8831,
11063,
12538,
12843,
12352,
10612,
8613,
6227,
4462,
3046,
2076,
1561,
1329,
1199,
1132,
1102,
1109,
1064,
1053,
1014,
1064,
1124,
1079,
1154,
1254,
1349,
1550,
1795,
1999,
2234,
2420,
2454,
2467,
2228,
1974,
1692,
1477,
1305,
1060,
1019,
985,
939,
920,
935,
911,
896,
912,
944,
908,
906,
888,
956,
913,
934,
883,
885,
893,
903,
869,
873,
890,
866,
876,
860,
890,
812,
832,
868,
849,
843,
796,
806,
828,
755,
852,
862,
850,
856,
822,
819,
800,
833,
777,
806,
789,
803,
789,
777,
763,
786,
766,
768,
805,
778,
776,
770,
774,
785,
756,
776,
748,
744,
766,
745,
749,
723,
756,
741,
746,
723,
668,
717,
716,
709,
755,
727,
713,
692,
701,
696,
722,
682,
673,
681,
707,
697,
718,
715,
746,
683,
711,
678,
664,
706,
653,
717,
629,
739,
659,
660,
671,
636,
610,
638,
649,
635,
580,
623,
656,
627,
630,
656,
611,
623,
563,
627,
636,
616,
583,
584,
634,
659,
598,
618,
619,
605,
647,
613,
569,
550,
616,
621,
621,
591,
624,
579,
588,
587,
592,
565,
613,
550,
587,
538,
529,
577,
566,
554,
561,
577,
580,
536,
568,
561,
562,
565,
552,
568,
550,
541,
568,
596,
586,
536,
514,
570,
530,
553,
549,
542,
547,
494,
574,
511,
507,
481,
496,
544,
487,
490,
471,
482,
492,
538,
487,
506,
521,
533,
450,
524,
537,
514,
500,
456,
483,
452,
445,
501,
514,
477,
475,
470,
458,
458,
475,
487,
457,
455,
452,
512,
478,
447,
483,
451,
463,
438,
459,
482,
420,
478,
442,
469,
480,
449,
525,
562,
668,
844,
1085,
1405,
1866,
2448,
3041,
3603,
4317,
4697,
5085,
4872,
4769,
4357,
3764,
3167,
2515,
1919,
1469,
1057,
880,
661,
524,
461,
471,
412,
377,
381,
419,
404,
366,
366,
369,
394,
361,
380,
407,
368,
375,
421,
382,
407,
376,
359,
413,
403,
392,
366,
385,
356,
396,
366,
346,
376,
371,
407,
361,
363,
382,
381,
421,
396,
393,
420,
463,
480,
546,
637,
647,
767,
823,
868,
920,
989,
981,
948,
886,
820,
718,
633,
662,
643,
785,
962,
1284,
1775,
2255,
2862,
3681,
4475,
5355,
6048,
6495,
6713,
6756,
6450,
5584,
5120,
4173,
3275,
2547,
1880,
1382,
1013,
773,
568,
478,
395,
365,
337,
333,
312,
284,
307,
285,
319,
274,
327,
289,
273,
279,
315,
284,
312,
291,
290,
296,
287,
292,
283,
265,
275,
262,
253,
263,
284,
291,
290,
268,
272,
251,
274,
281,
263,
283,
288,
264,
290,
281,
273,
266,
261,
283,
302,
255,
274,
347,
390,
446,
511,
585,
696,
804,
901,
1002,
1031,
1088,
1060,
1012,
972,
926,
790,
701,
606,
510,
423,
380,
333,
290,
247,
234,
245,
241,
225,
227,
216,
239,
205,
207,
204,
206,
192,
244,
224,
223,
208,
183,
216,
232,
214,
214,
188,
198,
179,
205,
187,
201,
200,
200,
186,
168,
191,
206,
186,
184,
199,
194,
187,
182,
202,
216,
188,
208,
203,
189,
177,
214,
197,
187,
186,
145,
167,
187,
175,
177,
199,
146,
191,
165,
189,
170,
183,
168,
180,
177,
141,
157,
193,
173,
163,
146,
211,
171,
198,
183,
138,
174,
163,
168,
140,
181,
155,
147,
154,
153,
159,
161,
164,
145,
144,
145,
130,
122,
125,
163,
141,
155,
147,
164,
150,
144,
142,
154,
166,
146,
144,
148,
146,
121,
125,
145,
136,
133,
127,
142,
151,
132,
134,
142,
135,
128,
161,
125,
134,
141,
122,
141,
134,
135,
100,
142,
110,
121,
131,
115,
124,
107,
119,
139,
134,
112,
127,
139,
114,
140,
117,
106,
122,
126,
114,
113,
119,
118,
118,
129,
117,
119,
115,
100,
125,
109,
94,
90,
118,
81,
95,
122,
96,
94,
109,
106,
97,
82,
105,
112,
96,
112,
112,
101,
105,
101,
101,
95,
91,
92,
90,
84,
93,
102,
93,
89,
99,
71,
105,
85,
93,
84,
88,
101,
97,
81,
92,
86,
90,
82,
94,
109,
96,
95,
91,
89,
71,
71,
56,
79,
95,
83,
86,
71,
77,
64,
87,
79,
85,
72,
85,
93,
94,
77,
80,
72,
69,
76,
66,
68,
82,
74,
67,
67,
71,
71,
75,
75,
66,
80,
81,
69,
61,
63,
79,
56,
76,
82,
70,
57,
60,
66,
67,
53,
66,
58,
55,
58,
53,
74,
61,
68,
66,
62,
47,
48,
79,
67,
59,
68,
66,
61,
54,
55,
60,
59,
56,
68,
60,
64,
61,
57,
52,
65,
44,
58,
48,
51,
46,
53,
49,
50,
61,
51,
62,
46,
36,
71,
41,
55,
40,
53,
50,
43,
41,
54,
44,
56,
54,
63,
47,
46,
38,
40,
42,
45,
39,
40,
39,
48,
47,
46,
47,
41,
55,
32,
40,
41,
48,
46,
47,
53,
49,
43,
37,
45,
52,
43,
44,
28,
34,
34,
41,
44,
35,
26,
37,
47,
43,
28,
34,
31,
34,
40,
26,
32,
33,
31,
25,
29,
25,
29,
29,
34,
18,
32,
28,
28,
32,
32,
26,
35,
29,
26,
35,
34,
27,
29,
30,
22,
29,
33,
28,
30,
29,
28,
37,
15,
32,
30,
23,
20,
21,
33,
21,
32,
30,
19,
20,
22,
21,
21,
24,
18,
17,
21,
26,
17,
14,
22,
21,
23,
21,
19,
31,
20,
23,
27,
25,
22,
21,
29,
15,
29,
18,
16,
22,
15,
22,
23,
18,
14,
18,
19,
19,
17,
17,
17,
24,
13,
14,
15,
19,
17,
11,
18,
11,
15,
18,
19,
19,
20,
13,
19,
17,
15,
20,
13,
14,
15,
10,
16,
8,
23,
20,
13,
16,
12,
9,
13,
9,
9,
15,
11,
4,
18,
17,
10,
9,
7,
10,
5,
11,
10,
7,
11,
10,
8,
2,
11,
14,
5,
7,
7,
11,
5,
9,
9,
6,
9,
13,
4,
13,
9,
8,
5,
7,
9,
5,
5,
4,
5,
9,
6,
7,
8,
2,
15,
4,
9,
10,
9,
4,
10,
6,
8,
3,
3,
9,
4,
6,
9,
2,
4,
2,
1,
2,
0,
4,
5,
2,
5,
5,
6,
0,
5,
2,
2,
2,
2,
1,
2,
5,
1,
4,
0,
0,
2,
2,
3,
4,
0,
0,
0,
0,
3,
0,
1,
0,
1,
2,
3,
2,
1,
0,
1,
0,
0,
1,
0,
0,
0,
0,
0,
1,
0,
#ENDOFDATA   :