File: data/exp_raw/ADM6005a spectra/ADM-6005a_3.msa
#FORMAT      : EMSA/MAS Spectral Data File
#VERSION     : 1.0
#TITLE       : Bruker Nano spectrum Acquisition
#DATE        : 12-JUL-2019
#TIME        : 09:39
#OWNER       : Bruker Nano
#NPOINTS     : 4096
#NCOLUMNS    : 1
#XUNITS      : eV
#YUNITS      : counts
#DATATYPE    : Y
#XPERCHAN    : 5.01716
#OFFSET      : -484.208
#BEAMKV      : 20
#SIGNALTYPE  : EDS
#ELEVANGLE   : 40
#AZIMANGLE   : 45
#LIVETIME    : 100.001
#REALTIME    : 112.113
#PROBECUR    : 5
#TAUWIND     : 0
#TDEADLYR    : 0
#TACTLYR     : 0.045
#TALWIND     : 0.004
#CHOFFSET    : 0.0
#XLABEL      : Energy (eV)
#YLABEL      : Counts
#EDSDET      : SDUTW
##DET_HASH   : c6370f9e-cc72-7559-f57e-203d75c8942b
##CALIB_HASH : b2d706fe-df19-4747-f399-990df6ef62be
##SAMPLE     : <BulkSample id="1">\n<mOrientation id="2">\n<double>0.0</double>\n<double>0.0</double>\n<double>-1.0</double>\n</mOrientation>\n</BulkSample>
#SPECTRUM    :
0,
0,
0,
0,
0,
0,
0,
0,
0,
0,
0,
0,
0,
0,
0,
0,
0,
0,
0,
2,
7,
10,
8,
8,
13,
7,
14,
110,
1502,
11260,
46706,
105149,
128796,
84900,
30026,
5859,
692,
51,
8,
0,
27,
305,
266,
286,
286,
314,
453,
644,
1169,
2053,
2623,
2427,
1673,
888,
627,
618,
734,
858,
928,
1049,
1079,
1428,
2002,
3683,
8237,
17160,
27339,
30990,
24522,
13717,
5539,
1873,
895,
790,
795,
806,
815,
961,
1042,
1054,
1150,
1227,
1250,
1294,
1360,
1486,
1557,
1706,
2026,
2301,
2694,
2920,
2874,
2858,
2807,
3534,
5645,
9978,
16337,
21999,
23993,
21592,
15997,
10550,
6796,
4821,
5019,
7798,
15506,
28678,
44362,
56235,
58042,
49361,
35687,
21728,
12097,
6429,
3846,
2700,
2173,
1960,
1706,
1652,
1642,
1931,
2695,
4519,
7832,
12561,
17089,
18564,
16810,
12698,
8396,
4934,
3191,
2305,
1961,
1785,
1706,
1728,
2046,
2839,
4408,
6926,
10059,
12712,
13233,
11755,
8949,
6160,
4048,
2863,
2457,
2112,
2036,
1891,
1715,
1710,
1687,
1675,
1706,
1750,
1773,
1713,
1739,
1777,
1698,
1769,
1732,
1752,
1790,
1798,
1783,
1771,
1818,
1739,
1748,
1795,
1770,
1766,
1756,
1758,
1762,
1787,
1776,
1734,
1744,
1756,
1719,
1730,
1795,
1773,
1736,
1758,
1758,
1772,
1709,
1767,
1793,
1793,
1797,
1757,
1833,
1715,
1776,
1757,
1759,
1745,
1735,
1768,
1723,
1705,
1694,
1695,
1707,
1677,
1732,
1697,
1690,
1689,
1730,
1698,
1733,
1715,
1655,
1701,
1691,
1707,
1673,
1669,
1660,
1671,
1722,
1642,
1667,
1656,
1638,
1612,
1626,
1649,
1570,
1616,
1629,
1635,
1578,
1678,
1562,
1633,
1546,
1589,
1560,
1648,
1561,
1533,
1569,
1529,
1569,
1441,
1506,
1543,
1494,
1440,
1514,
1504,
1502,
1535,
1690,
1827,
2139,
2920,
4238,
6478,
9444,
12934,
15749,
17799,
17894,
16454,
13355,
10014,
6919,
4463,
3051,
2172,
1726,
1510,
1416,
1463,
1468,
1488,
1618,
1646,
1973,
2251,
2546,
3032,
3272,
3286,
3303,
3004,
2536,
2180,
1853,
1597,
1423,
1307,
1244,
1215,
1254,
1171,
1213,
1245,
1203,
1167,
1168,
1180,
1206,
1180,
1196,
1208,
1290,
1450,
1780,
2315,
3376,
4794,
6906,
9051,
10900,
12511,
12931,
12278,
10690,
8561,
6235,
4519,
3074,
2111,
1594,
1302,
1130,
1134,
1078,
1093,
1057,
1096,
1030,
1037,
1101,
1130,
1215,
1209,
1355,
1569,
1809,
1990,
2265,
2390,
2475,
2420,
2243,
2006,
1761,
1491,
1296,
1145,
1035,
986,
888,
918,
927,
909,
917,
907,
878,
885,
924,
906,
923,
881,
913,
898,
889,
889,
871,
851,
876,
823,
911,
863,
845,
898,
833,
850,
842,
844,
839,
800,
826,
836,
797,
794,
795,
838,
869,
815,
819,
805,
817,
816,
807,
802,
802,
774,
809,
779,
778,
793,
768,
784,
784,
787,
762,
783,
766,
746,
748,
751,
769,
743,
758,
757,
742,
753,
726,
740,
740,
746,
742,
745,
741,
717,
700,
757,
741,
713,
742,
666,
681,
751,
655,
721,
728,
749,
689,
735,
679,
749,
716,
684,
688,
649,
654,
733,
702,
663,
662,
658,
679,
630,
658,
629,
667,
664,
682,
639,
642,
643,
611,
597,
626,
620,
624,
641,
633,
603,
651,
595,
649,
623,
591,
595,
579,
579,
587,
569,
604,
597,
566,
584,
568,
581,
583,
594,
579,
531,
599,
553,
558,
623,
587,
571,
538,
541,
533,
567,
547,
552,
537,
572,
513,
577,
548,
553,
571,
566,
541,
531,
548,
547,
599,
525,
527,
518,
545,
521,
544,
544,
527,
517,
550,
511,
554,
494,
482,
488,
499,
509,
467,
505,
480,
526,
507,
512,
505,
481,
524,
471,
474,
464,
495,
463,
505,
460,
498,
475,
470,
477,
472,
515,
466,
478,
466,
459,
438,
482,
470,
461,
437,
423,
442,
429,
482,
468,
449,
463,
466,
439,
501,
478,
518,
501,
515,
675,
837,
1010,
1382,
1821,
2440,
3038,
3738,
4232,
4660,
4946,
5041,
4690,
4388,
3700,
3219,
2533,
1977,
1521,
1033,
843,
673,
557,
494,
424,
398,
384,
387,
396,
399,
408,
411,
414,
389,
368,
393,
376,
379,
408,
373,
390,
366,
393,
345,
379,
366,
370,
363,
373,
393,
374,
365,
372,
335,
406,
368,
366,
357,
380,
405,
410,
418,
389,
425,
471,
521,
537,
593,
678,
750,
891,
845,
912,
975,
1005,
922,
808,
813,
750,
687,
673,
684,
759,
973,
1205,
1770,
2261,
2996,
3789,
4627,
5491,
6067,
6635,
6643,
6658,
6370,
5757,
4890,
4154,
3265,
2507,
1799,
1417,
970,
711,
578,
438,
407,
337,
285,
319,
295,
303,
287,
250,
300,
287,
288,
299,
293,
306,
310,
242,
300,
277,
263,
300,
248,
272,
267,
274,
278,
255,
254,
287,
255,
253,
266,
276,
241,
295,
256,
281,
280,
272,
280,
259,
288,
259,
275,
259,
276,
257,
301,
274,
321,
342,
389,
469,
504,
570,
708,
801,
963,
1021,
1093,
1111,
1134,
1056,
1021,
886,
807,
737,
626,
496,
426,
366,
281,
270,
260,
271,
247,
232,
203,
225,
212,
192,
214,
204,
204,
184,
206,
232,
187,
211,
212,
230,
198,
199,
191,
213,
214,
199,
203,
206,
207,
184,
209,
221,
217,
184,
180,
198,
200,
203,
177,
196,
178,
209,
208,
196,
178,
190,
189,
193,
185,
182,
198,
200,
187,
180,
203,
176,
158,
152,
187,
200,
207,
180,
156,
186,
179,
210,
157,
194,
159,
188,
158,
192,
163,
181,
161,
162,
156,
160,
167,
120,
162,
174,
191,
167,
154,
131,
141,
179,
151,
166,
156,
159,
150,
172,
136,
149,
147,
173,
171,
158,
176,
171,
150,
156,
157,
152,
130,
131,
141,
139,
136,
139,
129,
134,
144,
151,
165,
114,
118,
125,
141,
127,
132,
157,
151,
112,
150,
135,
131,
145,
131,
124,
133,
132,
135,
134,
144,
118,
123,
116,
120,
108,
134,
113,
106,
121,
119,
114,
105,
122,
122,
100,
128,
103,
105,
113,
120,
107,
119,
130,
98,
129,
120,
104,
101,
89,
98,
94,
101,
115,
100,
105,
106,
98,
108,
127,
108,
93,
95,
120,
108,
110,
138,
123,
113,
112,
104,
113,
98,
104,
103,
96,
106,
98,
84,
95,
100,
93,
95,
99,
84,
104,
104,
101,
97,
96,
68,
100,
95,
77,
94,
94,
73,
71,
71,
78,
88,
87,
83,
69,
83,
86,
90,
92,
98,
78,
85,
77,
79,
74,
79,
86,
75,
88,
77,
74,
75,
69,
56,
64,
58,
87,
81,
78,
73,
64,
67,
89,
62,
66,
71,
80,
93,
69,
62,
68,
73,
58,
51,
53,
52,
58,
69,
71,
85,
59,
75,
58,
58,
58,
56,
70,
71,
65,
60,
61,
62,
59,
65,
55,
57,
61,
66,
69,
57,
48,
59,
43,
58,
66,
61,
61,
36,
40,
52,
52,
50,
62,
59,
43,
54,
55,
69,
46,
51,
47,
41,
51,
51,
41,
54,
38,
43,
43,
47,
41,
35,
40,
44,
64,
44,
44,
50,
49,
48,
56,
43,
44,
55,
37,
44,
53,
57,
46,
42,
51,
42,
41,
43,
45,
35,
33,
36,
50,
37,
44,
32,
44,
46,
40,
44,
41,
29,
26,
33,
34,
29,
36,
26,
37,
28,
43,
35,
29,
38,
36,
33,
29,
43,
36,
30,
22,
34,
25,
34,
37,
32,
11,
27,
34,
20,
30,
15,
23,
23,
17,
32,
25,
37,
32,
26,
26,
30,
25,
26,
27,
24,
29,
25,
19,
37,
21,
25,
31,
29,
20,
18,
23,
21,
20,
21,
22,
20,
19,
28,
10,
21,
27,
17,
21,
30,
17,
17,
24,
26,
15,
23,
18,
20,
17,
14,
16,
19,
15,
19,
26,
15,
18,
20,
23,
25,
13,
19,
20,
21,
12,
15,
11,
15,
14,
16,
22,
15,
9,
24,
27,
10,
8,
19,
10,
9,
17,
13,
15,
16,
7,
17,
23,
19,
16,
8,
8,
14,
20,
23,
13,
15,
15,
13,
11,
13,
14,
12,
9,
12,
10,
9,
8,
6,
12,
9,
11,
9,
16,
12,
13,
9,
9,
7,
5,
5,
4,
12,
7,
3,
9,
7,
10,
7,
12,
5,
6,
8,
7,
6,
4,
4,
14,
7,
3,
9,
9,
4,
9,
4,
6,
6,
12,
7,
12,
7,
4,
5,
8,
0,
11,
7,
4,
7,
4,
8,
6,
5,
3,
3,
1,
3,
2,
10,
4,
2,
1,
1,
0,
5,
0,
4,
2,
2,
4,
4,
0,
2,
3,
5,
1,
1,
2,
0,
5,
0,
1,
4,
1,
6,
0,
0,
0,
2,
0,
2,
2,
3,
0,
0,
0,
0,
0,
0,
0,
0,
0,
0,
0,
#ENDOFDATA   :