File: data/exp_raw/ADM6005a spectra/ADM-6005a_8.msa
#FORMAT      : EMSA/MAS Spectral Data File
#VERSION     : 1.0
#TITLE       : Bruker Nano spectrum Acquisition
#DATE        : 12-JUL-2019
#TIME        : 09:54
#OWNER       : Bruker Nano
#NPOINTS     : 4096
#NCOLUMNS    : 1
#XUNITS      : eV
#YUNITS      : counts
#DATATYPE    : Y
#XPERCHAN    : 5.01716
#OFFSET      : -484.208
#BEAMKV      : 20
#SIGNALTYPE  : EDS
#ELEVANGLE   : 40
#AZIMANGLE   : 45
#LIVETIME    : 100.001
#REALTIME    : 112.169
#PROBECUR    : 5
#TAUWIND     : 0
#TDEADLYR    : 0
#TACTLYR     : 0.045
#TALWIND     : 0.004
#CHOFFSET    : 0.0
#XLABEL      : Energy (eV)
#YLABEL      : Counts
#EDSDET      : SDUTW
##DET_HASH   : c6370f9e-cc72-7559-f57e-203d75c8942b
##CALIB_HASH : b2d706fe-df19-4747-f399-990df6ef62be
##SAMPLE     : <BulkSample id="1">\n<mOrientation id="2">\n<double>0.0</double>\n<double>0.0</double>\n<double>-1.0</double>\n</mOrientation>\n</BulkSample>
#SPECTRUM    :
0,
0,
0,
0,
0,
0,
0,
0,
0,
0,
0,
0,
0,
0,
0,
0,
0,
0,
1,
5,
9,
13,
7,
5,
14,
8,
13,
123,
1459,
11252,
46533,
104969,
128679,
84563,
30179,
6061,
681,
55,
11,
0,
25,
298,
260,
269,
307,
326,
431,
662,
1190,
2019,
2701,
2561,
1658,
937,
575,
616,
698,
844,
991,
1021,
1137,
1367,
1976,
3685,
8445,
17392,
27426,
30561,
24128,
13590,
5340,
1848,
878,
709,
770,
889,
933,
925,
1009,
1073,
1186,
1175,
1284,
1253,
1370,
1404,
1535,
1743,
2069,
2322,
2637,
2926,
2965,
2709,
2820,
3573,
5539,
10241,
16354,
21895,
24075,
21410,
16076,
10654,
6744,
4790,
5029,
7860,
15590,
28715,
44250,
55730,
58243,
50110,
35723,
22205,
12223,
6513,
3840,
2761,
2242,
1933,
1781,
1739,
1863,
2006,
2672,
4501,
7914,
12619,
16956,
18704,
16752,
12809,
8321,
4999,
3232,
2303,
1907,
1741,
1678,
1761,
2042,
2862,
4428,
7023,
10112,
12688,
13374,
11854,
9038,
6098,
4179,
2943,
2357,
2231,
2020,
1855,
1758,
1654,
1677,
1732,
1749,
1739,
1740,
1770,
1763,
1685,
1696,
1742,
1784,
1747,
1709,
1785,
1764,
1792,
1792,
1762,
1773,
1771,
1761,
1773,
1779,
1754,
1765,
1751,
1803,
1778,
1755,
1775,
1751,
1762,
1784,
1754,
1701,
1748,
1758,
1769,
1801,
1748,
1802,
1800,
1775,
1742,
1759,
1707,
1785,
1819,
1720,
1795,
1766,
1750,
1774,
1755,
1669,
1726,
1725,
1689,
1725,
1738,
1762,
1617,
1717,
1674,
1701,
1736,
1683,
1636,
1684,
1763,
1673,
1698,
1664,
1675,
1675,
1642,
1666,
1666,
1665,
1597,
1641,
1587,
1591,
1616,
1666,
1592,
1674,
1559,
1611,
1611,
1589,
1590,
1584,
1511,
1541,
1572,
1602,
1543,
1552,
1619,
1467,
1514,
1511,
1440,
1517,
1545,
1528,
1536,
1687,
1767,
2180,
2918,
4259,
6476,
9455,
12831,
15951,
17760,
17871,
16368,
13446,
9856,
6861,
4543,
3026,
2061,
1726,
1509,
1473,
1395,
1449,
1521,
1570,
1694,
1904,
2189,
2575,
3030,
3184,
3293,
3233,
2996,
2564,
2106,
1876,
1558,
1427,
1318,
1272,
1207,
1220,
1221,
1230,
1213,
1199,
1222,
1160,
1192,
1238,
1203,
1215,
1236,
1260,
1422,
1733,
2371,
3263,
4817,
6637,
9016,
11117,
12560,
13029,
12308,
10775,
8546,
6296,
4409,
3039,
2057,
1617,
1291,
1148,
1127,
1101,
1073,
1056,
1094,
1072,
1056,
1076,
1128,
1158,
1234,
1397,
1531,
1791,
1992,
2217,
2472,
2457,
2455,
2235,
2046,
1757,
1452,
1260,
1153,
1064,
1016,
971,
920,
952,
927,
947,
955,
874,
881,
883,
894,
903,
863,
883,
898,
904,
883,
912,
900,
885,
879,
879,
866,
858,
875,
873,
861,
854,
862,
874,
839,
845,
862,
837,
857,
828,
868,
803,
839,
815,
812,
804,
802,
810,
814,
803,
800,
806,
780,
780,
817,
774,
776,
774,
809,
768,
796,
783,
769,
769,
760,
754,
749,
746,
761,
745,
744,
724,
739,
717,
761,
726,
735,
721,
710,
701,
719,
724,
720,
761,
750,
719,
679,
709,
767,
735,
695,
761,
686,
719,
739,
680,
696,
686,
691,
672,
674,
676,
643,
641,
648,
627,
679,
675,
635,
643,
699,
669,
615,
639,
637,
603,
624,
596,
589,
615,
616,
640,
628,
650,
605,
564,
614,
627,
658,
606,
607,
618,
610,
627,
632,
575,
591,
611,
576,
609,
627,
604,
589,
565,
552,
568,
582,
580,
591,
584,
514,
546,
559,
566,
605,
538,
549,
550,
585,
529,
608,
569,
563,
573,
595,
532,
569,
545,
543,
569,
543,
545,
567,
514,
539,
553,
493,
545,
523,
509,
482,
494,
502,
520,
496,
507,
484,
453,
559,
473,
524,
507,
476,
506,
465,
512,
500,
492,
480,
509,
489,
474,
472,
472,
478,
452,
485,
511,
480,
494,
491,
494,
461,
472,
472,
484,
427,
468,
469,
474,
448,
495,
467,
431,
462,
457,
449,
483,
551,
619,
699,
876,
1082,
1443,
1866,
2349,
3042,
3614,
4282,
4750,
5039,
5009,
4739,
4233,
3727,
3044,
2521,
1991,
1524,
1046,
791,
626,
549,
464,
458,
419,
424,
406,
418,
419,
407,
416,
365,
397,
405,
376,
410,
403,
385,
363,
386,
371,
364,
405,
364,
389,
365,
403,
371,
375,
384,
369,
356,
373,
394,
343,
380,
398,
385,
347,
390,
389,
433,
397,
443,
532,
556,
657,
737,
797,
860,
1001,
955,
987,
983,
885,
860,
788,
694,
696,
648,
621,
778,
942,
1312,
1724,
2293,
2967,
3762,
4652,
5378,
6177,
6584,
6706,
6680,
6425,
5817,
4955,
4238,
3263,
2574,
1869,
1404,
1045,
745,
550,
457,
422,
346,
310,
308,
307,
276,
300,
317,
324,
273,
303,
283,
286,
305,
284,
300,
268,
271,
253,
281,
270,
276,
286,
279,
259,
272,
264,
284,
297,
283,
270,
261,
234,
257,
282,
272,
251,
267,
251,
276,
263,
285,
265,
279,
250,
274,
283,
258,
321,
345,
372,
436,
497,
583,
719,
796,
915,
1051,
1122,
1115,
1073,
1047,
1083,
930,
809,
712,
622,
510,
435,
344,
310,
272,
266,
257,
233,
241,
229,
230,
205,
215,
226,
204,
211,
221,
230,
194,
193,
203,
225,
228,
239,
210,
200,
176,
224,
220,
202,
196,
194,
185,
187,
169,
189,
169,
195,
165,
203,
191,
205,
176,
207,
176,
202,
163,
182,
179,
182,
164,
173,
182,
173,
189,
190,
210,
163,
214,
187,
168,
197,
175,
188,
175,
185,
145,
171,
181,
176,
161,
193,
194,
191,
161,
169,
180,
185,
179,
207,
146,
156,
161,
162,
171,
159,
180,
187,
155,
173,
145,
168,
168,
153,
136,
178,
150,
150,
139,
162,
159,
169,
131,
156,
143,
154,
146,
151,
151,
162,
150,
153,
143,
152,
150,
142,
147,
137,
132,
127,
157,
149,
124,
124,
160,
137,
130,
125,
131,
136,
127,
136,
144,
122,
119,
125,
114,
146,
117,
144,
126,
127,
118,
101,
123,
105,
123,
123,
149,
121,
92,
134,
104,
129,
115,
109,
113,
115,
114,
103,
127,
108,
119,
116,
95,
117,
105,
92,
99,
108,
105,
103,
112,
111,
103,
108,
114,
88,
100,
101,
106,
119,
112,
114,
121,
85,
107,
100,
102,
94,
98,
99,
90,
87,
105,
100,
97,
111,
84,
110,
101,
113,
94,
96,
96,
91,
105,
87,
95,
88,
95,
83,
91,
71,
97,
89,
89,
107,
75,
80,
103,
77,
72,
90,
79,
74,
75,
77,
92,
90,
76,
80,
77,
73,
87,
71,
74,
75,
70,
83,
88,
85,
69,
78,
81,
79,
66,
69,
66,
66,
81,
66,
67,
62,
68,
71,
68,
64,
60,
64,
68,
65,
73,
70,
66,
71,
69,
49,
64,
64,
65,
59,
58,
75,
65,
64,
56,
66,
59,
60,
56,
67,
61,
71,
57,
61,
47,
63,
60,
55,
74,
51,
54,
51,
49,
50,
47,
52,
51,
46,
47,
48,
41,
55,
52,
57,
52,
45,
49,
35,
61,
47,
49,
53,
50,
56,
36,
46,
46,
36,
59,
38,
48,
59,
42,
41,
45,
37,
52,
38,
45,
47,
44,
51,
33,
48,
41,
38,
49,
45,
47,
43,
45,
33,
41,
40,
50,
43,
34,
32,
45,
45,
34,
39,
43,
36,
42,
19,
32,
28,
26,
27,
34,
34,
31,
24,
33,
28,
35,
33,
34,
28,
22,
32,
46,
34,
31,
32,
31,
30,
33,
29,
35,
26,
19,
21,
34,
25,
36,
26,
32,
33,
26,
17,
23,
31,
20,
20,
30,
25,
22,
19,
21,
23,
26,
27,
29,
21,
36,
21,
27,
19,
25,
22,
21,
31,
19,
20,
24,
16,
26,
18,
28,
21,
21,
26,
26,
18,
15,
14,
17,
18,
22,
28,
26,
20,
23,
18,
19,
15,
17,
14,
15,
16,
14,
20,
14,
11,
13,
9,
15,
12,
19,
17,
22,
16,
21,
15,
19,
14,
16,
12,
11,
12,
18,
17,
9,
23,
19,
17,
8,
15,
10,
19,
10,
10,
16,
13,
10,
22,
15,
9,
15,
13,
8,
15,
4,
5,
17,
9,
15,
5,
13,
12,
8,
5,
8,
5,
11,
7,
18,
5,
6,
11,
11,
8,
10,
7,
6,
2,
11,
10,
8,
7,
5,
6,
7,
9,
9,
5,
1,
9,
11,
4,
6,
6,
4,
6,
11,
2,
8,
7,
7,
9,
8,
6,
5,
11,
7,
6,
2,
4,
3,
5,
2,
9,
4,
7,
2,
5,
1,
3,
1,
1,
4,
6,
2,
4,
2,
4,
3,
4,
1,
0,
3,
3,
2,
1,
6,
2,
0,
3,
0,
0,
0,
0,
1,
2,
1,
0,
3,
2,
0,
0,
1,
0,
0,
0,
1,
0,
0,
1,
0,
0,
0,
0,
0,
#ENDOFDATA   :