File: data/exp_raw/ADM6005a spectra/ADM-6005a_7.msa
#FORMAT      : EMSA/MAS Spectral Data File
#VERSION     : 1.0
#TITLE       : Bruker Nano spectrum Acquisition
#DATE        : 12-JUL-2019
#TIME        : 09:52
#OWNER       : Bruker Nano
#NPOINTS     : 4096
#NCOLUMNS    : 1
#XUNITS      : eV
#YUNITS      : counts
#DATATYPE    : Y
#XPERCHAN    : 5.01716
#OFFSET      : -484.208
#BEAMKV      : 20
#SIGNALTYPE  : EDS
#ELEVANGLE   : 40
#AZIMANGLE   : 45
#LIVETIME    : 100.001
#REALTIME    : 112.162
#PROBECUR    : 5
#TAUWIND     : 0
#TDEADLYR    : 0
#TACTLYR     : 0.045
#TALWIND     : 0.004
#CHOFFSET    : 0.0
#XLABEL      : Energy (eV)
#YLABEL      : Counts
#EDSDET      : SDUTW
##DET_HASH   : c6370f9e-cc72-7559-f57e-203d75c8942b
##CALIB_HASH : b2d706fe-df19-4747-f399-990df6ef62be
##SAMPLE     : <BulkSample id="1">\n<mOrientation id="2">\n<double>0.0</double>\n<double>0.0</double>\n<double>-1.0</double>\n</mOrientation>\n</BulkSample>
#SPECTRUM    :
0,
0,
0,
0,
0,
0,
0,
0,
0,
0,
0,
0,
0,
0,
0,
0,
0,
0,
2,
4,
8,
15,
10,
12,
13,
13,
18,
144,
1501,
11212,
46798,
105054,
128151,
84948,
30217,
5960,
726,
79,
7,
0,
34,
289,
262,
256,
318,
338,
420,
661,
1183,
2000,
2668,
2534,
1675,
899,
627,
603,
755,
824,
1019,
1061,
1101,
1381,
1992,
3686,
8301,
17390,
27150,
31191,
24561,
13688,
5267,
1861,
925,
766,
774,
789,
867,
941,
987,
1063,
1175,
1223,
1202,
1261,
1340,
1516,
1582,
1730,
1960,
2430,
2738,
2831,
2848,
2740,
2774,
3506,
5837,
9990,
16312,
21994,
23902,
21484,
16146,
10613,
6798,
4909,
5021,
7983,
15566,
28532,
43763,
55940,
57529,
49934,
35871,
22021,
12133,
6480,
3946,
2726,
2318,
1881,
1781,
1701,
1781,
1982,
2754,
4521,
7888,
12636,
16919,
18561,
16845,
12638,
8275,
5119,
3168,
2299,
1963,
1742,
1711,
1699,
2007,
2826,
4454,
6978,
10079,
12622,
13245,
11929,
9037,
6097,
4139,
2934,
2432,
2191,
2057,
1863,
1679,
1690,
1623,
1732,
1703,
1716,
1766,
1767,
1764,
1718,
1764,
1748,
1723,
1766,
1780,
1774,
1756,
1813,
1805,
1794,
1792,
1791,
1765,
1781,
1763,
1786,
1784,
1745,
1791,
1793,
1771,
1762,
1761,
1788,
1730,
1798,
1738,
1738,
1750,
1751,
1806,
1777,
1842,
1844,
1776,
1757,
1772,
1777,
1782,
1773,
1737,
1722,
1750,
1759,
1789,
1795,
1754,
1765,
1770,
1770,
1749,
1739,
1706,
1728,
1748,
1688,
1717,
1684,
1686,
1717,
1660,
1700,
1671,
1655,
1707,
1642,
1681,
1663,
1654,
1641,
1601,
1617,
1630,
1609,
1586,
1580,
1638,
1612,
1570,
1579,
1628,
1579,
1582,
1602,
1521,
1504,
1591,
1576,
1527,
1542,
1507,
1583,
1540,
1507,
1524,
1553,
1512,
1541,
1523,
1574,
1614,
1830,
2098,
2958,
4289,
6468,
9449,
12933,
15642,
18048,
17894,
16156,
13209,
10097,
6881,
4481,
3024,
2138,
1699,
1512,
1401,
1450,
1438,
1436,
1580,
1737,
1981,
2248,
2665,
2982,
3215,
3349,
3266,
2899,
2472,
2179,
1748,
1508,
1395,
1255,
1259,
1266,
1244,
1216,
1191,
1176,
1258,
1220,
1210,
1219,
1188,
1165,
1250,
1176,
1318,
1467,
1731,
2330,
3334,
4822,
6668,
8914,
11041,
12516,
13115,
12360,
10564,
8496,
6339,
4415,
3140,
2130,
1624,
1300,
1218,
1153,
1071,
1067,
1052,
1052,
1038,
1037,
1043,
1196,
1139,
1246,
1356,
1524,
1800,
2025,
2263,
2400,
2471,
2431,
2242,
1988,
1738,
1478,
1266,
1180,
1053,
1001,
935,
965,
948,
899,
907,
914,
896,
861,
911,
934,
920,
884,
874,
909,
896,
956,
909,
900,
832,
909,
834,
835,
864,
808,
875,
816,
885,
822,
838,
854,
853,
821,
820,
822,
814,
791,
827,
826,
820,
821,
830,
814,
789,
802,
793,
779,
827,
791,
798,
774,
772,
778,
793,
783,
763,
742,
758,
761,
770,
771,
767,
760,
779,
741,
732,
746,
777,
739,
747,
743,
741,
740,
721,
702,
673,
719,
699,
672,
749,
763,
734,
703,
750,
724,
792,
731,
717,
697,
743,
701,
702,
721,
751,
678,
692,
735,
685,
705,
654,
690,
625,
639,
698,
700,
674,
637,
625,
647,
688,
639,
609,
652,
586,
636,
601,
631,
654,
662,
631,
581,
615,
635,
650,
600,
648,
630,
622,
572,
553,
618,
582,
611,
598,
550,
587,
524,
551,
587,
565,
568,
637,
562,
552,
593,
550,
562,
573,
567,
588,
533,
546,
538,
532,
565,
578,
507,
574,
582,
593,
624,
564,
551,
579,
554,
550,
585,
476,
526,
533,
509,
542,
489,
504,
519,
499,
498,
492,
532,
503,
509,
527,
519,
519,
477,
473,
518,
542,
472,
497,
484,
496,
483,
490,
552,
507,
499,
451,
501,
491,
471,
512,
429,
442,
475,
489,
483,
468,
457,
458,
456,
477,
481,
481,
503,
421,
475,
476,
426,
485,
465,
482,
513,
501,
541,
564,
658,
856,
1086,
1401,
1923,
2386,
3034,
3658,
4353,
4733,
4948,
5007,
4894,
4366,
3714,
3157,
2561,
1954,
1471,
1139,
884,
665,
596,
457,
450,
440,
416,
458,
377,
438,
391,
467,
378,
417,
412,
407,
400,
368,
374,
381,
392,
390,
370,
370,
367,
352,
344,
376,
353,
339,
402,
351,
381,
387,
417,
373,
376,
394,
402,
388,
365,
363,
421,
421,
422,
484,
527,
633,
720,
809,
831,
883,
931,
993,
951,
886,
855,
798,
716,
670,
678,
670,
745,
1022,
1344,
1786,
2234,
2929,
3706,
4559,
5373,
6161,
6597,
6854,
6701,
6334,
5822,
4982,
4152,
3183,
2563,
1871,
1363,
1034,
765,
558,
440,
360,
372,
336,
344,
307,
306,
286,
331,
290,
282,
301,
306,
292,
294,
302,
280,
261,
252,
286,
277,
257,
285,
291,
290,
308,
280,
279,
269,
289,
293,
310,
250,
276,
255,
270,
257,
272,
294,
284,
264,
279,
256,
242,
278,
264,
282,
291,
321,
286,
345,
373,
445,
491,
599,
708,
825,
846,
971,
1102,
1133,
1099,
1019,
1003,
900,
802,
702,
593,
542,
464,
388,
335,
317,
267,
269,
263,
232,
222,
233,
210,
223,
213,
227,
203,
212,
234,
215,
229,
228,
189,
219,
210,
238,
203,
199,
214,
216,
232,
190,
227,
208,
174,
225,
214,
195,
205,
189,
205,
211,
189,
198,
187,
181,
183,
195,
191,
171,
190,
180,
182,
165,
180,
181,
199,
191,
190,
178,
167,
181,
180,
157,
191,
165,
196,
180,
197,
177,
160,
173,
182,
184,
179,
158,
184,
157,
150,
178,
173,
183,
172,
159,
169,
174,
149,
140,
160,
138,
138,
152,
158,
150,
158,
151,
153,
158,
140,
169,
153,
155,
146,
151,
144,
125,
158,
133,
160,
140,
166,
151,
158,
146,
149,
150,
144,
129,
163,
137,
125,
147,
131,
144,
140,
138,
157,
151,
114,
126,
113,
141,
130,
120,
130,
138,
117,
134,
130,
119,
110,
122,
127,
122,
124,
132,
120,
110,
126,
120,
119,
126,
109,
144,
131,
100,
109,
119,
95,
116,
115,
112,
108,
132,
99,
113,
108,
114,
105,
131,
106,
112,
98,
106,
119,
130,
104,
103,
111,
105,
114,
115,
112,
106,
118,
104,
84,
115,
109,
111,
108,
101,
97,
102,
102,
106,
99,
86,
104,
92,
111,
84,
86,
76,
97,
89,
100,
97,
94,
90,
88,
72,
83,
105,
73,
96,
79,
69,
68,
90,
66,
74,
82,
85,
87,
86,
90,
96,
79,
74,
86,
81,
78,
69,
73,
68,
71,
59,
64,
60,
92,
82,
68,
81,
87,
81,
86,
63,
68,
82,
65,
74,
62,
70,
71,
90,
73,
67,
65,
57,
62,
65,
66,
57,
71,
57,
68,
82,
76,
53,
62,
59,
68,
82,
59,
63,
63,
66,
63,
66,
56,
61,
53,
72,
62,
57,
60,
50,
50,
64,
61,
54,
49,
50,
49,
52,
45,
51,
57,
45,
62,
64,
44,
45,
73,
63,
51,
37,
55,
55,
53,
46,
58,
49,
46,
62,
38,
56,
53,
56,
43,
65,
53,
50,
50,
30,
43,
65,
38,
47,
38,
35,
45,
42,
39,
43,
47,
39,
46,
38,
34,
43,
49,
39,
33,
38,
33,
51,
40,
40,
31,
39,
42,
26,
33,
41,
36,
36,
34,
52,
32,
31,
40,
54,
32,
43,
35,
43,
39,
36,
27,
42,
31,
40,
33,
26,
28,
36,
23,
29,
33,
24,
34,
33,
27,
28,
32,
31,
30,
25,
21,
27,
34,
26,
26,
20,
27,
27,
16,
31,
31,
32,
25,
23,
24,
23,
29,
25,
27,
21,
28,
29,
21,
26,
27,
15,
19,
25,
22,
15,
19,
17,
26,
30,
24,
21,
22,
22,
24,
21,
25,
19,
15,
24,
22,
20,
6,
11,
20,
18,
14,
22,
16,
18,
22,
13,
17,
25,
12,
16,
15,
9,
18,
17,
13,
13,
10,
23,
16,
15,
12,
11,
13,
16,
16,
14,
8,
18,
17,
10,
11,
14,
16,
7,
11,
15,
12,
9,
9,
17,
8,
13,
13,
10,
12,
16,
5,
14,
17,
7,
4,
7,
13,
11,
15,
6,
13,
12,
11,
8,
6,
11,
7,
3,
10,
11,
13,
6,
11,
9,
7,
10,
6,
6,
11,
10,
3,
11,
7,
5,
1,
2,
10,
6,
6,
2,
4,
7,
6,
6,
10,
8,
4,
9,
3,
5,
3,
5,
6,
5,
7,
6,
8,
7,
7,
6,
4,
1,
6,
0,
3,
5,
3,
6,
5,
2,
4,
4,
7,
4,
1,
3,
0,
3,
4,
3,
3,
0,
1,
3,
0,
1,
1,
2,
6,
1,
2,
0,
0,
0,
0,
3,
3,
2,
0,
1,
1,
0,
0,
0,
0,
2,
0,
0,
0,
0,
2,
0,
#ENDOFDATA   :