File: data/exp_raw/ADM6005a spectra/Al std.msa
#FORMAT      : EMSA/MAS Spectral Data File
#VERSION     : 1.0
#TITLE       : Bruker Nano spectrum Acquisition
#DATE        : 12-JUL-2019
#TIME        : 10:24
#OWNER       : Bruker Nano
#NPOINTS     : 4096
#NCOLUMNS    : 1
#XUNITS      : eV
#YUNITS      : counts
#DATATYPE    : Y
#XPERCHAN    : 5.01623
#OFFSET      : -484.154
#BEAMKV      : 20
#SIGNALTYPE  : EDS
#ELEVANGLE   : 40
#AZIMANGLE   : 45
#LIVETIME    : 100.001
#REALTIME    : 131.658
#PROBECUR    : 5
#TAUWIND     : 0
#TDEADLYR    : 0
#TACTLYR     : 0.045
#TALWIND     : 0.004
#CHOFFSET    : 0.0
#XLABEL      : Energy (eV)
#YLABEL      : Counts
#EDSDET      : SDUTW
##D2STDCMP   : Al,(Al:100.0),2.7
##DET_HASH   : c6370f9e-cc72-7559-f57e-203d75c8942b
##CALIB_HASH : 54ef92dd-c85a-cbea-898e-ee7ceef4355d
##SAMPLE     : <BulkSample id="1">\n<mOrientation id="2">\n<double>0.0</double>\n<double>0.0</double>\n<double>-1.0</double>\n</mOrientation>\n</BulkSample>
#SPECTRUM    :
0,
0,
0,
0,
0,
0,
0,
0,
0,
0,
0,
0,
0,
0,
0,
0,
0,
0,
2,
11,
21,
39,
30,
34,
36,
20,
38,
319,
3787,
29105,
123363,
280901,
343843,
226018,
81008,
16546,
1986,
170,
53,
0,
57,
408,
362,
353,
389,
379,
452,
701,
1260,
2274,
2928,
2805,
1846,
913,
569,
419,
445,
474,
499,
508,
543,
602,
655,
859,
1173,
1795,
2517,
2838,
2335,
1702,
1202,
1023,
1030,
1145,
1262,
1420,
1587,
1647,
1761,
1834,
1867,
1921,
1922,
2104,
2110,
2278,
2405,
2381,
2577,
2658,
2711,
2816,
2846,
2814,
2891,
2951,
3038,
3138,
3150,
3239,
3202,
3369,
3345,
3333,
3479,
3529,
3625,
3782,
3760,
3772,
3868,
4016,
4294,
4289,
4632,
4814,
5150,
5311,
5692,
5968,
6363,
6825,
7066,
7567,
9670,
18246,
45222,
112366,
238833,
410037,
566268,
626254,
556079,
397325,
233799,
116480,
52868,
24548,
11624,
6259,
3490,
2137,
1605,
1298,
1242,
1271,
1299,
1358,
1358,
1279,
1174,
1038,
932,
799,
811,
869,
849,
836,
841,
815,
830,
869,
872,
881,
897,
874,
895,
910,
932,
885,
912,
894,
906,
919,
938,
975,
915,
941,
975,
956,
935,
986,
963,
964,
995,
994,
1002,
977,
1017,
993,
972,
999,
996,
994,
929,
1006,
922,
948,
992,
993,
978,
973,
942,
971,
953,
930,
948,
955,
990,
1078,
974,
1003,
954,
937,
997,
923,
961,
974,
940,
959,
917,
913,
916,
928,
909,
915,
914,
922,
916,
913,
919,
914,
927,
919,
914,
913,
923,
912,
905,
943,
952,
983,
959,
966,
1012,
1021,
1006,
990,
991,
973,
933,
979,
946,
991,
939,
930,
925,
941,
971,
966,
925,
960,
953,
943,
924,
938,
914,
937,
926,
915,
938,
930,
900,
922,
920,
974,
958,
1019,
934,
996,
951,
939,
926,
893,
822,
886,
872,
842,
846,
854,
877,
823,
837,
871,
846,
865,
854,
828,
860,
868,
849,
832,
782,
817,
863,
832,
792,
804,
765,
791,
791,
826,
798,
802,
797,
791,
756,
770,
742,
781,
792,
741,
781,
756,
752,
732,
742,
736,
748,
722,
748,
743,
746,
732,
707,
721,
723,
730,
733,
685,
715,
695,
682,
695,
696,
678,
687,
678,
686,
690,
685,
677,
662,
654,
700,
672,
653,
657,
665,
667,
669,
664,
675,
634,
628,
632,
631,
659,
671,
611,
630,
635,
619,
589,
610,
604,
625,
590,
584,
616,
589,
587,
641,
629,
593,
601,
631,
564,
585,
580,
537,
585,
608,
548,
598,
549,
577,
540,
574,
609,
561,
536,
509,
527,
560,
526,
543,
551,
511,
545,
587,
537,
550,
522,
530,
528,
554,
531,
528,
521,
514,
496,
574,
506,
532,
482,
509,
510,
463,
507,
529,
507,
462,
472,
461,
474,
506,
504,
490,
469,
472,
476,
427,
489,
495,
432,
477,
460,
480,
454,
471,
465,
452,
441,
461,
425,
454,
459,
438,
475,
432,
467,
492,
437,
454,
414,
411,
463,
422,
418,
430,
434,
446,
425,
471,
418,
375,
385,
415,
438,
397,
400,
410,
396,
388,
393,
414,
391,
391,
373,
387,
392,
366,
379,
383,
437,
430,
403,
384,
390,
348,
388,
403,
389,
359,
337,
354,
421,
350,
367,
332,
358,
375,
374,
367,
371,
399,
379,
359,
346,
395,
398,
376,
341,
408,
326,
388,
366,
382,
356,
334,
316,
348,
350,
361,
383,
322,
337,
346,
336,
341,
347,
315,
305,
314,
334,
366,
322,
285,
328,
302,
331,
319,
327,
329,
310,
322,
321,
354,
309,
357,
344,
314,
299,
292,
259,
295,
322,
319,
292,
277,
301,
338,
281,
296,
345,
284,
286,
311,
284,
271,
280,
275,
287,
282,
271,
283,
277,
271,
288,
265,
285,
293,
274,
273,
296,
277,
261,
262,
285,
253,
256,
300,
259,
277,
267,
286,
250,
268,
272,
232,
273,
252,
245,
255,
256,
257,
249,
266,
265,
227,
252,
236,
256,
242,
234,
258,
257,
261,
242,
236,
232,
242,
234,
231,
224,
261,
229,
240,
233,
242,
260,
228,
216,
217,
234,
245,
195,
220,
215,
253,
221,
251,
212,
233,
223,
216,
233,
202,
223,
221,
248,
225,
211,
216,
240,
211,
210,
230,
216,
227,
217,
224,
204,
218,
205,
228,
233,
214,
224,
203,
227,
204,
182,
220,
190,
194,
207,
189,
208,
195,
218,
190,
186,
186,
191,
208,
191,
193,
201,
178,
203,
168,
188,
195,
166,
195,
210,
194,
175,
172,
176,
186,
209,
160,
172,
183,
162,
179,
177,
173,
171,
143,
175,
158,
166,
173,
176,
155,
158,
186,
167,
162,
175,
158,
181,
157,
159,
153,
149,
154,
166,
166,
146,
168,
163,
140,
155,
148,
162,
151,
143,
150,
133,
172,
153,
140,
159,
155,
149,
151,
159,
116,
154,
141,
153,
155,
144,
147,
131,
134,
140,
141,
132,
132,
139,
147,
151,
134,
128,
151,
129,
131,
148,
124,
98,
122,
142,
119,
124,
116,
133,
128,
136,
122,
108,
109,
131,
115,
138,
121,
136,
111,
137,
138,
131,
127,
133,
123,
117,
127,
109,
122,
124,
126,
105,
129,
126,
119,
108,
121,
108,
104,
110,
107,
124,
105,
110,
106,
115,
106,
118,
98,
120,
90,
109,
108,
111,
111,
108,
116,
107,
93,
105,
110,
117,
98,
91,
123,
93,
108,
105,
105,
87,
94,
104,
117,
98,
110,
78,
106,
112,
103,
102,
85,
92,
79,
108,
73,
96,
113,
94,
97,
89,
95,
94,
79,
81,
91,
89,
77,
83,
92,
101,
83,
73,
85,
65,
85,
73,
82,
105,
108,
79,
99,
91,
67,
81,
84,
81,
78,
75,
75,
72,
71,
67,
80,
76,
94,
72,
67,
78,
66,
82,
61,
84,
66,
59,
77,
82,
68,
71,
71,
58,
65,
59,
67,
73,
72,
61,
72,
63,
63,
60,
55,
65,
71,
61,
62,
76,
63,
69,
58,
75,
62,
74,
71,
65,
66,
65,
57,
77,
70,
60,
62,
55,
42,
62,
67,
65,
51,
45,
49,
58,
49,
55,
50,
47,
58,
61,
44,
50,
60,
61,
66,
53,
66,
47,
36,
59,
55,
43,
43,
54,
54,
52,
62,
44,
60,
43,
49,
57,
60,
44,
59,
53,
50,
37,
42,
42,
48,
60,
54,
48,
54,
37,
32,
55,
42,
54,
48,
42,
45,
40,
42,
43,
53,
44,
47,
55,
56,
47,
43,
46,
50,
49,
45,
51,
49,
40,
42,
38,
34,
35,
38,
33,
35,
39,
35,
39,
50,
31,
44,
39,
39,
41,
47,
42,
35,
28,
25,
31,
29,
47,
38,
46,
31,
26,
33,
38,
26,
28,
33,
44,
31,
34,
43,
25,
31,
25,
25,
30,
27,
31,
16,
22,
39,
32,
22,
24,
28,
32,
23,
32,
23,
25,
24,
22,
41,
29,
30,
18,
17,
18,
28,
24,
25,
16,
17,
22,
19,
25,
23,
26,
21,
29,
21,
29,
19,
19,
18,
20,
22,
17,
25,
23,
25,
20,
17,
14,
18,
11,
21,
19,
18,
15,
24,
12,
24,
30,
17,
17,
22,
20,
18,
15,
21,
21,
15,
19,
17,
24,
17,
16,
16,
14,
10,
24,
13,
30,
14,
18,
26,
15,
8,
15,
14,
18,
16,
15,
15,
16,
10,
8,
15,
19,
19,
15,
11,
22,
15,
7,
10,
17,
16,
16,
14,
13,
11,
13,
12,
11,
13,
15,
9,
9,
16,
11,
9,
16,
14,
12,
10,
10,
12,
13,
14,
10,
21,
7,
9,
6,
12,
9,
10,
14,
10,
14,
11,
7,
8,
14,
5,
5,
12,
8,
6,
6,
4,
9,
12,
10,
6,
10,
8,
13,
9,
11,
9,
15,
7,
1,
3,
9,
3,
11,
5,
5,
4,
5,
6,
4,
5,
6,
11,
11,
4,
3,
5,
4,
7,
8,
8,
6,
2,
6,
8,
5,
8,
3,
3,
7,
8,
6,
6,
4,
9,
5,
9,
2,
6,
4,
1,
1,
4,
3,
8,
3,
4,
1,
3,
6,
5,
4,
3,
3,
3,
6,
2,
5,
6,
8,
0,
4,
0,
3,
3,
3,
6,
0,
2,
2,
4,
6,
4,
2,
3,
4,
3,
5,
3,
5,
1,
1,
5,
1,
1,
4,
2,
5,
3,
2,
2,
1,
4,
3,
0,
1,
3,
2,
1,
2,
2,
2,
2,
0,
2,
1,
6,
2,
1,
2,
0,
1,
1,
3,
2,
0,
2,
1,
0,
0,
0,
0,
1,
1,
2,
0,
0,
0,
1,
1,
1,
1,
0,
0,
#ENDOFDATA   :