File: data/exp_raw/ADM6005a spectra/CaF2 std.msa
#FORMAT      : EMSA/MAS Spectral Data File
#VERSION     : 1.0
#TITLE       : Bruker Nano spectrum Acquisition
#DATE        : 08-MAR-2019
#TIME        : 09:25
#OWNER       : Bruker Nano
#NPOINTS     : 4096
#NCOLUMNS    : 1
#XUNITS      : eV
#YUNITS      : counts
#DATATYPE    : Y
#XPERCHAN    : 5.00258
#OFFSET      : -483.028
#BEAMKV      : 20
#SIGNALTYPE  : EDS
#ELEVANGLE   : 40
#AZIMANGLE   : 45
#LIVETIME    : 100
#REALTIME    : 106.743
#PROBECUR    : 2.5
#TAUWIND     : 0
#TDEADLYR    : 0
#TACTLYR     : 0.045
#TALWIND     : 0.004
#CHOFFSET    : 0.0
#XLABEL      : Energy (eV)
#YLABEL      : Counts
#EDSDET      : SDUTW
##D2STDCMP   : CaF2,(F:48.6667),(Ca:51.3333),3.18
##DET_HASH   : c6370f9e-cc72-7559-f57e-203d75c8942b
##CALIB_HASH : ed56667e-fa06-fe77-7dea-269296c34ddc
##SAMPLE     : <BulkSample id="1">\n<mOrientation id="2">\n<double>0.0</double>\n<double>0.0</double>\n<double>-1.0</double>\n</mOrientation>\n</BulkSample>
#SPECTRUM    :
0,
0,
0,
0,
0,
0,
0,
0,
0,
0,
0,
0,
0,
0,
0,
0,
0,
0,
0,
2,
1,
2,
1,
3,
5,
4,
3,
53,
692,
5224,
23027,
52983,
65106,
42440,
14996,
2864,
322,
29,
0,
0,
8,
166,
171,
164,
193,
230,
281,
426,
748,
1303,
1839,
1891,
1497,
1107,
879,
678,
564,
365,
271,
265,
225,
216,
200,
225,
236,
339,
367,
417,
459,
407,
465,
554,
870,
2026,
5297,
11963,
20223,
25434,
22555,
14502,
6788,
2313,
817,
421,
392,
356,
375,
384,
402,
423,
456,
480,
437,
445,
478,
448,
479,
529,
549,
526,
559,
598,
606,
604,
643,
664,
710,
667,
707,
681,
792,
755,
773,
786,
804,
829,
817,
905,
860,
886,
894,
871,
915,
919,
926,
914,
950,
962,
954,
938,
938,
970,
981,
1009,
988,
985,
969,
981,
950,
929,
1006,
952,
985,
960,
1021,
1000,
1030,
1060,
1045,
1017,
1045,
1022,
1014,
1023,
1035,
1046,
1063,
985,
958,
1011,
980,
1029,
1008,
1063,
1122,
1030,
1110,
1008,
1003,
981,
1055,
995,
938,
980,
1040,
994,
1007,
977,
972,
984,
957,
940,
960,
966,
953,
1035,
958,
945,
1005,
953,
995,
967,
1001,
944,
958,
908,
917,
925,
928,
934,
877,
887,
954,
925,
938,
925,
919,
919,
884,
887,
890,
859,
884,
880,
845,
899,
900,
798,
847,
839,
854,
845,
798,
846,
848,
820,
817,
880,
854,
856,
805,
865,
850,
830,
837,
828,
782,
839,
823,
815,
809,
824,
751,
772,
805,
813,
802,
790,
781,
781,
816,
782,
760,
787,
738,
773,
726,
737,
744,
732,
770,
749,
776,
778,
817,
810,
864,
923,
1129,
1565,
2639,
4930,
9300,
16524,
27229,
40533,
54293,
64737,
68184,
65117,
55278,
41425,
28070,
17083,
9521,
5009,
2562,
1444,
1052,
920,
883,
1006,
1288,
1748,
2527,
3529,
4893,
6556,
7711,
8564,
8488,
7864,
6513,
4780,
3360,
2205,
1365,
839,
656,
469,
489,
429,
417,
388,
400,
406,
427,
399,
404,
414,
389,
393,
390,
432,
395,
399,
399,
407,
409,
401,
409,
407,
387,
415,
380,
398,
419,
423,
396,
388,
391,
378,
378,
383,
395,
380,
368,
377,
383,
378,
389,
379,
370,
380,
390,
405,
365,
382,
381,
375,
388,
354,
377,
357,
351,
350,
383,
357,
370,
351,
372,
343,
342,
362,
342,
359,
340,
355,
354,
356,
325,
348,
367,
329,
331,
367,
332,
323,
352,
372,
348,
355,
353,
343,
320,
309,
316,
325,
305,
332,
344,
342,
322,
309,
329,
310,
319,
303,
309,
291,
347,
292,
306,
361,
288,
318,
289,
278,
300,
312,
307,
295,
311,
317,
297,
285,
277,
266,
304,
297,
279,
293,
303,
291,
266,
262,
304,
303,
298,
306,
286,
288,
289,
268,
313,
280,
281,
260,
275,
279,
250,
255,
276,
268,
284,
267,
259,
280,
286,
275,
248,
253,
265,
284,
242,
245,
281,
261,
264,
231,
264,
224,
263,
266,
260,
246,
250,
231,
242,
264,
241,
229,
254,
238,
224,
242,
237,
237,
260,
254,
245,
242,
258,
235,
263,
227,
234,
234,
233,
224,
223,
260,
226,
245,
237,
202,
217,
231,
212,
210,
216,
195,
245,
215,
242,
239,
194,
203,
205,
207,
208,
217,
206,
208,
208,
196,
219,
203,
215,
212,
208,
192,
204,
218,
211,
183,
207,
190,
193,
211,
212,
210,
204,
206,
197,
201,
198,
192,
198,
207,
189,
194,
200,
188,
188,
186,
188,
186,
187,
195,
190,
181,
188,
189,
183,
180,
188,
190,
189,
179,
182,
197,
188,
188,
179,
189,
185,
182,
182,
181,
185,
160,
177,
187,
176,
176,
221,
169,
165,
170,
174,
197,
150,
156,
192,
179,
146,
160,
141,
179,
149,
155,
153,
156,
190,
165,
180,
161,
148,
155,
151,
165,
142,
147,
148,
164,
174,
159,
168,
137,
154,
156,
184,
157,
144,
143,
157,
148,
162,
161,
160,
166,
152,
143,
165,
138,
161,
154,
152,
144,
146,
140,
155,
141,
128,
130,
148,
150,
132,
142,
120,
126,
127,
127,
146,
151,
142,
130,
141,
126,
123,
120,
122,
131,
141,
127,
138,
124,
130,
143,
140,
148,
131,
113,
133,
122,
113,
130,
138,
133,
125,
129,
131,
128,
104,
130,
116,
121,
114,
127,
122,
130,
122,
122,
109,
116,
123,
115,
101,
108,
87,
105,
119,
104,
122,
121,
127,
120,
126,
108,
106,
104,
117,
109,
115,
111,
101,
106,
106,
100,
90,
110,
107,
98,
101,
111,
122,
100,
100,
98,
84,
111,
101,
94,
114,
116,
103,
92,
109,
118,
92,
97,
84,
110,
98,
103,
106,
99,
99,
101,
118,
112,
114,
96,
89,
84,
107,
104,
91,
80,
105,
97,
97,
77,
99,
95,
96,
85,
66,
77,
88,
105,
89,
103,
88,
94,
94,
70,
84,
87,
72,
80,
82,
80,
76,
102,
70,
92,
76,
87,
83,
62,
89,
81,
86,
83,
78,
82,
69,
89,
97,
91,
82,
77,
71,
68,
72,
83,
83,
58,
74,
81,
67,
70,
77,
83,
89,
76,
68,
64,
75,
72,
76,
60,
66,
80,
66,
86,
62,
77,
70,
88,
59,
69,
75,
77,
65,
81,
73,
86,
65,
63,
61,
70,
64,
72,
62,
67,
76,
57,
59,
74,
67,
56,
73,
53,
80,
73,
55,
73,
52,
57,
64,
64,
65,
54,
62,
64,
56,
49,
54,
49,
47,
44,
48,
44,
46,
57,
56,
45,
55,
47,
62,
42,
43,
60,
46,
48,
64,
55,
57,
52,
67,
43,
63,
53,
32,
41,
61,
54,
40,
45,
48,
48,
47,
52,
54,
44,
52,
54,
46,
46,
41,
47,
51,
61,
55,
36,
47,
45,
43,
35,
40,
42,
39,
36,
51,
53,
42,
42,
46,
42,
45,
45,
42,
32,
50,
51,
48,
49,
51,
36,
49,
38,
39,
34,
34,
43,
50,
42,
40,
41,
42,
45,
54,
38,
38,
39,
35,
37,
49,
26,
32,
34,
34,
39,
43,
30,
43,
39,
38,
30,
23,
30,
33,
32,
26,
34,
31,
30,
29,
33,
29,
30,
21,
31,
29,
43,
52,
36,
25,
32,
45,
37,
33,
28,
34,
20,
30,
32,
28,
29,
24,
27,
31,
34,
25,
29,
23,
26,
30,
31,
26,
22,
29,
19,
28,
25,
25,
26,
27,
22,
20,
21,
25,
27,
19,
22,
20,
27,
27,
29,
30,
31,
22,
20,
23,
26,
22,
20,
33,
28,
17,
29,
22,
22,
21,
22,
17,
24,
25,
23,
21,
25,
23,
18,
22,
20,
25,
23,
24,
19,
25,
22,
31,
22,
19,
31,
18,
21,
19,
25,
19,
26,
11,
24,
20,
26,
28,
18,
17,
10,
27,
20,
12,
11,
16,
22,
25,
22,
18,
23,
17,
19,
27,
22,
18,
21,
19,
23,
14,
17,
15,
14,
16,
23,
13,
16,
21,
19,
17,
19,
11,
15,
11,
23,
16,
16,
14,
13,
12,
9,
14,
17,
14,
15,
16,
12,
12,
12,
16,
14,
14,
13,
15,
12,
14,
10,
15,
12,
15,
5,
7,
14,
14,
19,
13,
10,
19,
13,
10,
5,
12,
14,
13,
12,
10,
11,
14,
4,
17,
8,
14,
10,
15,
7,
10,
6,
6,
15,
11,
11,
11,
5,
10,
10,
7,
12,
4,
2,
13,
12,
9,
9,
11,
6,
9,
8,
9,
5,
15,
14,
10,
7,
11,
8,
6,
2,
10,
3,
5,
12,
9,
8,
4,
3,
2,
3,
4,
5,
4,
4,
6,
8,
11,
7,
12,
7,
9,
7,
9,
1,
3,
8,
4,
5,
5,
6,
7,
4,
9,
6,
6,
10,
2,
7,
4,
5,
7,
9,
3,
3,
5,
6,
6,
6,
5,
5,
4,
4,
1,
5,
6,
5,
4,
5,
7,
5,
4,
2,
3,
6,
4,
3,
5,
4,
6,
4,
3,
4,
3,
4,
6,
2,
2,
3,
4,
2,
2,
0,
3,
1,
3,
6,
7,
4,
1,
2,
3,
3,
0,
3,
5,
3,
2,
4,
1,
4,
2,
3,
2,
6,
2,
0,
0,
2,
0,
3,
3,
1,
2,
0,
1,
1,
2,
1,
2,
2,
2,
2,
2,
2,
5,
3,
0,
3,
1,
2,
1,
0,
1,
1,
1,
2,
1,
1,
0,
0,
0,
2,
0,
0,
0,
1,
1,
2,
0,
0,
0,
1,
0,
2,
0,
1,
0,
0,
0,
0,
1,
0,
0,
0,
1,
0,
0,
0,
#ENDOFDATA   :