File: data/exp_raw/ADM6005a spectra/Fe std.msa
#FORMAT      : EMSA/MAS Spectral Data File
#VERSION     : 1.0
#TITLE       : Bruker Nano spectrum Acquisition
#DATE        : 06-MAR-2019
#TIME        : 03:32
#OWNER       : Bruker Nano
#NPOINTS     : 4096
#NCOLUMNS    : 1
#XUNITS      : eV
#YUNITS      : counts
#DATATYPE    : Y
#XPERCHAN    : 5.00258
#OFFSET      : -483.028
#BEAMKV      : 20
#SIGNALTYPE  : EDS
#ELEVANGLE   : 40
#AZIMANGLE   : 45
#LIVETIME    : 100
#REALTIME    : 108.811
#PROBECUR    : 2.5
#TAUWIND     : 0
#TDEADLYR    : 0
#TACTLYR     : 0.045
#TALWIND     : 0.004
#CHOFFSET    : 0.0
#XLABEL      : Energy (eV)
#YLABEL      : Counts
#EDSDET      : SDUTW
##D2STDCMP   : Fe,(Fe:100.0),7.87
##DET_HASH   : c6370f9e-cc72-7559-f57e-203d75c8942b
##CALIB_HASH : ed56667e-fa06-fe77-7dea-269296c34ddc
##SAMPLE     : <BulkSample id="1">\n<mOrientation id="2">\n<double>0.0</double>\n<double>0.0</double>\n<double>-1.0</double>\n</mOrientation>\n</BulkSample>
#SPECTRUM    :
0,
0,
0,
0,
0,
0,
0,
0,
0,
0,
0,
0,
0,
0,
0,
0,
0,
0,
0,
5,
5,
6,
3,
5,
8,
9,
9,
61,
856,
7180,
30959,
70687,
86175,
56640,
20261,
3912,
418,
30,
5,
0,
31,
250,
211,
218,
271,
251,
336,
510,
991,
1689,
2310,
2257,
1551,
771,
419,
392,
458,
518,
554,
538,
630,
676,
819,
986,
1117,
1435,
1691,
1931,
2074,
2353,
3612,
6335,
9824,
11890,
11326,
10201,
12237,
19381,
28068,
31163,
25724,
15754,
7185,
2779,
1198,
803,
654,
566,
483,
513,
526,
484,
477,
482,
508,
527,
527,
534,
565,
561,
602,
614,
641,
632,
691,
692,
719,
700,
757,
750,
773,
790,
794,
800,
860,
858,
904,
881,
942,
937,
866,
980,
971,
967,
954,
995,
1027,
1003,
1029,
1078,
1074,
1048,
1111,
1046,
1013,
1104,
1031,
1068,
1067,
1031,
1066,
1100,
1087,
1117,
1140,
1175,
1219,
1285,
1298,
1315,
1268,
1268,
1203,
1229,
1204,
1274,
1213,
1247,
1232,
1229,
1246,
1301,
1282,
1257,
1288,
1269,
1287,
1303,
1281,
1262,
1300,
1290,
1258,
1275,
1318,
1316,
1321,
1267,
1375,
1297,
1294,
1326,
1347,
1350,
1351,
1336,
1345,
1329,
1360,
1309,
1320,
1350,
1337,
1324,
1308,
1398,
1237,
1326,
1286,
1264,
1339,
1310,
1294,
1243,
1378,
1274,
1304,
1369,
1333,
1337,
1306,
1281,
1304,
1259,
1272,
1307,
1267,
1308,
1251,
1283,
1243,
1292,
1253,
1267,
1269,
1286,
1146,
1251,
1259,
1240,
1283,
1220,
1249,
1294,
1167,
1194,
1163,
1250,
1161,
1202,
1211,
1204,
1156,
1195,
1241,
1162,
1182,
1184,
1136,
1085,
1125,
1184,
1165,
1125,
1140,
1153,
1102,
1105,
1113,
1134,
1133,
1129,
1098,
1090,
1090,
1095,
1093,
1021,
1032,
1093,
1074,
1088,
1080,
1092,
1022,
1065,
1110,
1115,
1072,
1085,
1057,
1063,
1082,
1008,
1050,
1035,
1030,
976,
993,
956,
1000,
987,
1021,
956,
1017,
1000,
940,
1020,
958,
965,
946,
940,
947,
944,
967,
945,
951,
906,
969,
909,
933,
917,
898,
904,
937,
871,
937,
880,
873,
889,
931,
899,
853,
862,
860,
829,
857,
842,
853,
885,
859,
868,
894,
934,
858,
881,
841,
863,
829,
856,
815,
813,
831,
787,
828,
815,
815,
812,
756,
766,
796,
787,
741,
756,
823,
756,
744,
783,
740,
788,
718,
715,
712,
751,
719,
714,
743,
769,
732,
714,
752,
683,
720,
777,
743,
693,
747,
737,
745,
655,
716,
701,
683,
688,
624,
666,
663,
671,
689,
635,
677,
688,
683,
708,
694,
724,
689,
673,
690,
649,
637,
659,
627,
661,
669,
672,
671,
597,
605,
644,
596,
603,
594,
613,
623,
611,
588,
578,
627,
647,
693,
567,
592,
612,
633,
588,
643,
591,
630,
548,
641,
613,
603,
661,
631,
642,
592,
607,
695,
605,
639,
653,
691,
693,
743,
838,
990,
1328,
1876,
2959,
4927,
8217,
12650,
19112,
26381,
34492,
42584,
48465,
51619,
50940,
46863,
40059,
31857,
23963,
16728,
11030,
6734,
3979,
2447,
1404,
1072,
757,
628,
629,
574,
565,
549,
553,
535,
542,
537,
571,
556,
548,
597,
567,
586,
588,
606,
625,
687,
779,
893,
1087,
1384,
1911,
2585,
3514,
4356,
5396,
6125,
6663,
6779,
6522,
6050,
5184,
4221,
3228,
2429,
1746,
1217,
895,
638,
508,
410,
401,
347,
369,
348,
338,
360,
354,
338,
365,
333,
351,
353,
397,
334,
334,
364,
338,
350,
340,
340,
333,
357,
322,
352,
339,
304,
342,
324,
342,
337,
318,
341,
304,
322,
359,
339,
336,
337,
361,
334,
339,
328,
327,
319,
294,
313,
332,
325,
270,
276,
300,
297,
310,
309,
305,
335,
307,
304,
336,
302,
317,
297,
320,
289,
257,
312,
308,
341,
293,
283,
320,
307,
314,
304,
329,
301,
315,
277,
276,
309,
271,
291,
308,
283,
289,
322,
272,
279,
309,
280,
295,
270,
268,
284,
277,
274,
276,
291,
307,
310,
283,
286,
290,
243,
270,
279,
280,
312,
254,
293,
285,
306,
276,
282,
257,
275,
266,
277,
293,
277,
289,
237,
256,
246,
260,
251,
258,
267,
236,
284,
254,
232,
246,
285,
244,
264,
249,
234,
270,
274,
270,
226,
270,
248,
234,
245,
264,
227,
244,
259,
253,
236,
272,
246,
251,
267,
226,
243,
233,
255,
213,
239,
244,
217,
249,
234,
238,
219,
222,
222,
236,
223,
253,
241,
240,
241,
206,
198,
232,
235,
200,
208,
231,
220,
220,
198,
214,
205,
211,
214,
239,
218,
200,
206,
195,
209,
209,
221,
217,
201,
235,
227,
214,
198,
190,
224,
210,
205,
227,
197,
206,
186,
194,
190,
202,
218,
210,
197,
220,
206,
230,
221,
219,
182,
214,
199,
169,
217,
184,
186,
185,
190,
194,
199,
185,
184,
206,
183,
210,
184,
178,
212,
191,
202,
181,
178,
167,
197,
168,
187,
207,
177,
160,
194,
184,
162,
184,
180,
175,
158,
166,
164,
169,
196,
171,
163,
203,
176,
179,
164,
162,
147,
170,
151,
158,
178,
158,
154,
128,
164,
172,
163,
175,
163,
149,
156,
168,
171,
184,
131,
150,
179,
155,
174,
164,
124,
156,
172,
146,
141,
143,
142,
171,
141,
158,
138,
144,
166,
142,
124,
160,
158,
135,
137,
154,
139,
128,
164,
155,
135,
140,
167,
124,
126,
127,
155,
139,
128,
161,
133,
124,
148,
156,
135,
151,
142,
124,
114,
128,
144,
132,
112,
138,
110,
139,
125,
118,
127,
123,
112,
130,
132,
122,
122,
111,
117,
142,
127,
106,
131,
109,
97,
116,
121,
121,
119,
115,
114,
116,
128,
110,
118,
115,
118,
105,
112,
109,
112,
105,
109,
106,
118,
95,
102,
108,
103,
116,
92,
105,
101,
101,
109,
108,
89,
95,
117,
86,
113,
95,
78,
105,
81,
93,
91,
89,
99,
101,
79,
89,
95,
99,
71,
86,
86,
82,
105,
84,
90,
86,
89,
94,
82,
90,
97,
96,
88,
83,
90,
79,
78,
82,
76,
83,
82,
73,
85,
88,
117,
81,
80,
79,
65,
94,
91,
81,
80,
83,
96,
62,
77,
100,
64,
67,
80,
70,
76,
60,
74,
85,
75,
72,
72,
77,
81,
66,
80,
63,
89,
63,
70,
74,
47,
62,
75,
62,
72,
88,
66,
68,
70,
64,
58,
63,
80,
54,
71,
69,
63,
77,
57,
59,
65,
62,
69,
51,
58,
58,
67,
55,
75,
48,
76,
71,
54,
55,
66,
75,
63,
46,
63,
62,
54,
66,
60,
65,
48,
59,
60,
50,
58,
43,
54,
49,
51,
48,
68,
60,
55,
44,
51,
55,
59,
56,
43,
44,
45,
53,
44,
57,
51,
45,
49,
50,
41,
53,
44,
39,
51,
44,
37,
43,
54,
49,
59,
56,
43,
41,
43,
49,
36,
47,
45,
52,
46,
37,
48,
30,
52,
57,
50,
42,
51,
47,
50,
37,
27,
35,
35,
43,
33,
37,
41,
28,
36,
38,
35,
38,
34,
42,
46,
38,
46,
44,
40,
36,
43,
47,
31,
37,
37,
40,
31,
29,
33,
27,
35,
34,
41,
25,
29,
29,
31,
27,
39,
26,
41,
21,
34,
33,
30,
29,
30,
25,
26,
27,
23,
23,
27,
27,
20,
25,
21,
19,
35,
25,
23,
25,
39,
18,
34,
30,
17,
27,
17,
28,
20,
31,
23,
30,
22,
25,
22,
35,
28,
21,
25,
20,
16,
22,
29,
15,
26,
26,
21,
17,
19,
13,
18,
14,
9,
17,
21,
24,
12,
13,
17,
25,
25,
24,
19,
29,
23,
18,
18,
20,
18,
20,
20,
21,
17,
23,
23,
14,
13,
13,
21,
20,
20,
16,
24,
19,
13,
19,
14,
11,
16,
11,
10,
11,
16,
13,
10,
10,
16,
11,
14,
18,
12,
7,
13,
10,
19,
7,
15,
11,
15,
6,
6,
7,
12,
14,
6,
13,
7,
6,
9,
13,
12,
9,
11,
8,
15,
11,
16,
7,
12,
7,
14,
14,
10,
6,
8,
10,
10,
8,
8,
8,
5,
8,
7,
9,
4,
7,
6,
12,
4,
5,
6,
6,
7,
5,
7,
3,
6,
3,
9,
8,
10,
6,
10,
9,
4,
2,
10,
6,
2,
5,
5,
2,
4,
3,
1,
1,
6,
4,
6,
5,
6,
3,
5,
4,
5,
2,
3,
4,
5,
4,
2,
3,
3,
5,
2,
0,
3,
2,
2,
3,
4,
3,
1,
0,
2,
2,
1,
0,
1,
2,
3,
0,
0,
3,
1,
0,
0,
1,
0,
0,
2,
0,
1,
0,
0,
0,
0,
0,
2,
0,
1,
1,
1,
0,
#ENDOFDATA   :