File: data/exp_raw/ADM6005a spectra/Ge std.msa
#FORMAT      : EMSA/MAS Spectral Data File
#VERSION     : 1.0
#TITLE       : Bruker Nano spectrum Acquisition
#DATE        : 12-JUL-2019
#TIME        : 10:33
#OWNER       : Bruker Nano
#NPOINTS     : 4096
#NCOLUMNS    : 1
#XUNITS      : eV
#YUNITS      : counts
#DATATYPE    : Y
#XPERCHAN    : 5.01623
#OFFSET      : -484.154
#BEAMKV      : 20
#SIGNALTYPE  : EDS
#ELEVANGLE   : 40
#AZIMANGLE   : 45
#LIVETIME    : 100.001
#REALTIME    : 124.903
#PROBECUR    : 5
#TAUWIND     : 0
#TDEADLYR    : 0
#TACTLYR     : 0.045
#TALWIND     : 0.004
#CHOFFSET    : 0.0
#XLABEL      : Energy (eV)
#YLABEL      : Counts
#EDSDET      : SDUTW
##D2STDCMP   : Ge,(Ge:100.0),5.32
##DET_HASH   : c6370f9e-cc72-7559-f57e-203d75c8942b
##CALIB_HASH : 54ef92dd-c85a-cbea-898e-ee7ceef4355d
##SAMPLE     : <BulkSample id="1">\n<mOrientation id="2">\n<double>0.0</double>\n<double>0.0</double>\n<double>-1.0</double>\n</mOrientation>\n</BulkSample>
#SPECTRUM    :
0,
0,
0,
0,
0,
0,
0,
0,
0,
0,
0,
0,
0,
0,
0,
0,
0,
1,
1,
12,
37,
37,
41,
38,
40,
40,
58,
278,
3320,
23581,
94654,
210520,
255207,
168282,
61243,
12507,
1561,
162,
44,
19,
64,
536,
441,
473,
482,
526,
617,
1009,
1818,
3205,
4260,
3924,
2566,
1303,
773,
589,
669,
710,
768,
768,
804,
899,
994,
1088,
1389,
1655,
2051,
2060,
1885,
1654,
1592,
1627,
1716,
1841,
2046,
2228,
2327,
2385,
2611,
2715,
2859,
3161,
3133,
3374,
3465,
3651,
3779,
3985,
4161,
4467,
4436,
4483,
4780,
4771,
4968,
5328,
5957,
7213,
9720,
13916,
18575,
22578,
22968,
20443,
16923,
15443,
20416,
39771,
85294,
161507,
249772,
311342,
310437,
252224,
169746,
95703,
46277,
20607,
9358,
5091,
3438,
2544,
2032,
1770,
1629,
1614,
1586,
1536,
1490,
1530,
1478,
1521,
1455,
1451,
1490,
1475,
1452,
1479,
1478,
1492,
1521,
1528,
1640,
1678,
1640,
1721,
1742,
1834,
1844,
1768,
1832,
1884,
1788,
1818,
1781,
1776,
1806,
1817,
1794,
1825,
1826,
1901,
1860,
1911,
1891,
1870,
1984,
1889,
1939,
1962,
1941,
2018,
1971,
1958,
1945,
1991,
1997,
1997,
1966,
1986,
2046,
1980,
2064,
2014,
1979,
1965,
1985,
2014,
1981,
2037,
2054,
2159,
2126,
2102,
2117,
2168,
2201,
2201,
2207,
2184,
2179,
2216,
2186,
2280,
2307,
2296,
2186,
2311,
2276,
2297,
2236,
2313,
2329,
2240,
2267,
2329,
2273,
2323,
2335,
2291,
2353,
2278,
2254,
2244,
2281,
2317,
2236,
2234,
2289,
2251,
2266,
2260,
2290,
2177,
2199,
2200,
2255,
2260,
2201,
2294,
2251,
2260,
2297,
2251,
2216,
2269,
2190,
2168,
2197,
2156,
2259,
2235,
2204,
2172,
2249,
2164,
2189,
2173,
2169,
2196,
2244,
2236,
2143,
2181,
2106,
2102,
2100,
2111,
2103,
2137,
2097,
2054,
2099,
2119,
2104,
2182,
2183,
2130,
2125,
2158,
2144,
2069,
2054,
2035,
2039,
2041,
1971,
1993,
2051,
1989,
1998,
1995,
2048,
1904,
2012,
1944,
1922,
1912,
2034,
1892,
1900,
1985,
1898,
1917,
1941,
1887,
1911,
1896,
1849,
1910,
1944,
1890,
1897,
1901,
1838,
1927,
1859,
1807,
1828,
1819,
1801,
1792,
1837,
1832,
1781,
1830,
1796,
1814,
1804,
1807,
1825,
1808,
1865,
1841,
1775,
1788,
1713,
1713,
1703,
1705,
1670,
1727,
1649,
1737,
1751,
1681,
1693,
1652,
1731,
1631,
1662,
1697,
1678,
1626,
1628,
1603,
1604,
1607,
1642,
1620,
1584,
1681,
1570,
1618,
1591,
1539,
1603,
1497,
1538,
1495,
1558,
1514,
1551,
1491,
1512,
1456,
1621,
1463,
1467,
1541,
1493,
1483,
1512,
1436,
1456,
1520,
1376,
1482,
1494,
1497,
1433,
1420,
1404,
1436,
1399,
1386,
1373,
1428,
1491,
1362,
1340,
1410,
1419,
1410,
1392,
1364,
1296,
1306,
1427,
1398,
1307,
1307,
1389,
1315,
1263,
1269,
1396,
1312,
1322,
1278,
1359,
1244,
1240,
1263,
1297,
1269,
1253,
1268,
1268,
1345,
1238,
1249,
1243,
1271,
1365,
1222,
1229,
1233,
1274,
1234,
1185,
1243,
1164,
1223,
1191,
1196,
1189,
1245,
1225,
1200,
1200,
1195,
1229,
1150,
1201,
1170,
1200,
1146,
1113,
1119,
1161,
1149,
1153,
1121,
1140,
1134,
1109,
1088,
1143,
1088,
1132,
1137,
1133,
1067,
1100,
1112,
1068,
1097,
1075,
1115,
1136,
1121,
1038,
1082,
1022,
990,
1025,
1038,
994,
1067,
992,
1052,
1066,
976,
1018,
1041,
1065,
982,
1017,
1000,
1003,
1026,
1050,
987,
964,
996,
1002,
959,
942,
973,
979,
975,
975,
956,
977,
954,
966,
949,
922,
968,
924,
971,
985,
980,
951,
954,
1027,
1026,
976,
978,
1008,
979,
1005,
968,
951,
926,
898,
902,
906,
936,
877,
838,
848,
897,
863,
854,
945,
936,
933,
840,
853,
879,
803,
869,
853,
840,
861,
854,
861,
858,
866,
804,
902,
776,
879,
824,
826,
856,
840,
780,
803,
817,
817,
815,
785,
789,
781,
807,
830,
800,
776,
806,
812,
786,
747,
790,
786,
775,
788,
796,
759,
736,
782,
781,
797,
729,
738,
770,
768,
705,
767,
734,
778,
761,
750,
726,
705,
765,
721,
739,
710,
733,
766,
672,
690,
727,
720,
677,
730,
743,
654,
699,
717,
632,
677,
750,
703,
668,
692,
674,
716,
674,
649,
635,
649,
701,
673,
668,
620,
637,
653,
609,
706,
658,
621,
581,
661,
648,
650,
665,
653,
603,
669,
655,
613,
653,
639,
669,
644,
656,
672,
639,
634,
631,
683,
695,
622,
712,
641,
694,
670,
685,
767,
831,
959,
1131,
1538,
1973,
2786,
4121,
5725,
7932,
10622,
13595,
17016,
19942,
22468,
24359,
25172,
24902,
23665,
21388,
18344,
15139,
11895,
9252,
6576,
4670,
3276,
2231,
1572,
1140,
949,
800,
696,
617,
562,
556,
609,
563,
533,
515,
535,
527,
538,
515,
580,
525,
568,
515,
533,
499,
537,
517,
543,
466,
505,
514,
525,
536,
518,
502,
537,
507,
477,
517,
493,
551,
505,
486,
531,
522,
493,
531,
536,
547,
512,
537,
569,
603,
667,
757,
905,
1140,
1398,
1746,
2122,
2451,
2875,
3178,
3434,
3636,
3650,
3486,
3287,
2967,
2510,
2166,
1804,
1525,
1224,
1032,
821,
746,
602,
550,
464,
445,
415,
410,
401,
345,
346,
360,
366,
360,
380,
349,
342,
346,
352,
362,
352,
368,
381,
333,
393,
363,
346,
371,
330,
329,
323,
339,
367,
358,
357,
360,
335,
330,
319,
342,
314,
323,
376,
347,
352,
331,
298,
326,
326,
334,
334,
342,
337,
321,
344,
302,
303,
318,
291,
285,
317,
335,
307,
310,
310,
322,
317,
297,
292,
288,
299,
279,
291,
284,
285,
269,
284,
273,
264,
266,
265,
277,
268,
263,
284,
265,
272,
298,
280,
276,
271,
269,
283,
286,
271,
280,
275,
271,
265,
293,
265,
264,
279,
271,
260,
255,
260,
249,
244,
258,
234,
248,
231,
231,
260,
224,
234,
226,
254,
247,
231,
271,
247,
260,
259,
271,
246,
223,
235,
253,
196,
229,
221,
206,
228,
224,
239,
236,
232,
218,
209,
235,
216,
232,
214,
215,
227,
199,
206,
218,
213,
230,
231,
230,
193,
230,
216,
212,
221,
216,
214,
225,
225,
208,
217,
213,
226,
198,
197,
218,
177,
209,
190,
195,
186,
196,
188,
213,
189,
200,
208,
189,
182,
197,
163,
151,
192,
179,
170,
193,
194,
196,
192,
165,
181,
169,
173,
183,
164,
190,
169,
160,
162,
172,
169,
181,
167,
185,
178,
176,
189,
172,
175,
142,
139,
172,
148,
168,
149,
163,
133,
160,
190,
149,
145,
162,
135,
153,
158,
144,
166,
117,
160,
141,
137,
128,
142,
163,
119,
132,
136,
132,
131,
133,
131,
135,
130,
144,
145,
137,
149,
147,
136,
132,
155,
121,
141,
116,
132,
112,
134,
127,
133,
142,
129,
146,
115,
115,
121,
124,
120,
129,
122,
122,
101,
107,
103,
97,
122,
109,
111,
104,
126,
123,
124,
133,
100,
115,
94,
106,
98,
137,
113,
121,
102,
101,
124,
89,
97,
114,
105,
107,
96,
95,
92,
102,
88,
108,
99,
103,
96,
94,
109,
95,
96,
94,
75,
81,
75,
78,
94,
87,
86,
82,
87,
96,
83,
84,
105,
91,
88,
87,
78,
79,
85,
87,
87,
84,
83,
83,
94,
71,
63,
78,
72,
80,
78,
73,
77,
71,
75,
79,
87,
67,
77,
80,
68,
72,
71,
68,
87,
66,
49,
76,
69,
54,
78,
74,
70,
66,
57,
48,
51,
72,
70,
49,
60,
49,
63,
71,
62,
67,
69,
68,
80,
59,
76,
49,
64,
67,
62,
58,
51,
54,
55,
53,
76,
55,
54,
66,
55,
60,
57,
39,
39,
43,
44,
66,
42,
45,
48,
47,
56,
50,
46,
53,
45,
48,
46,
39,
41,
50,
44,
51,
50,
50,
27,
47,
36,
47,
50,
35,
27,
43,
45,
37,
40,
25,
40,
37,
28,
35,
40,
39,
34,
39,
45,
37,
37,
42,
28,
29,
33,
33,
31,
35,
31,
30,
32,
38,
23,
32,
34,
42,
29,
32,
29,
30,
31,
30,
36,
39,
26,
31,
31,
20,
33,
28,
26,
24,
21,
23,
38,
30,
23,
23,
25,
26,
33,
17,
26,
17,
25,
21,
20,
17,
26,
21,
13,
21,
26,
21,
21,
19,
10,
12,
9,
15,
18,
14,
20,
16,
21,
13,
10,
20,
15,
11,
19,
15,
16,
18,
21,
13,
17,
13,
8,
12,
9,
19,
15,
12,
17,
10,
7,
15,
11,
11,
20,
6,
13,
18,
9,
13,
11,
8,
7,
8,
5,
12,
8,
6,
5,
7,
4,
11,
9,
9,
5,
10,
9,
2,
8,
14,
11,
6,
5,
6,
8,
5,
6,
3,
5,
0,
1,
0,
0,
1,
0,
0,
0,
0,
0,
0,
0,
0,
0,
0,
0,
0,
0,
0,
0,
0,
#ENDOFDATA   :