File: data/exp_raw/ADM6005a spectra/Si std.msa
#FORMAT      : EMSA/MAS Spectral Data File
#VERSION     : 1.0
#TITLE       : Bruker Nano spectrum Acquisition
#DATE        : 12-JUL-2019
#TIME        : 10:20
#OWNER       : Bruker Nano
#NPOINTS     : 4096
#NCOLUMNS    : 1
#XUNITS      : eV
#YUNITS      : counts
#DATATYPE    : Y
#XPERCHAN    : 5.01623
#OFFSET      : -484.154
#BEAMKV      : 20
#SIGNALTYPE  : EDS
#ELEVANGLE   : 40
#AZIMANGLE   : 45
#LIVETIME    : 100.001
#REALTIME    : 129.984
#PROBECUR    : 5
#TAUWIND     : 0
#TDEADLYR    : 0
#TACTLYR     : 0.045
#TALWIND     : 0.004
#CHOFFSET    : 0.0
#XLABEL      : Energy (eV)
#YLABEL      : Counts
#EDSDET      : SDUTW
##D2STDCMP   : Si,(Si:100.0),2.33
##DET_HASH   : c6370f9e-cc72-7559-f57e-203d75c8942b
##CALIB_HASH : 54ef92dd-c85a-cbea-898e-ee7ceef4355d
##SAMPLE     : <BulkSample id="1">\n<mOrientation id="2">\n<double>0.0</double>\n<double>0.0</double>\n<double>-1.0</double>\n</mOrientation>\n</BulkSample>
#SPECTRUM    :
0,
0,
0,
0,
0,
0,
0,
0,
0,
0,
0,
0,
0,
0,
0,
0,
0,
0,
3,
9,
22,
46,
45,
43,
39,
38,
42,
281,
3833,
29330,
123459,
281140,
343855,
226574,
80922,
16481,
1869,
226,
74,
47,
118,
540,
349,
311,
314,
342,
395,
637,
1221,
2278,
2999,
2856,
1807,
889,
463,
351,
387,
421,
396,
447,
417,
483,
569,
582,
776,
996,
1226,
1325,
1180,
1038,
932,
870,
970,
1033,
1103,
1237,
1298,
1376,
1510,
1576,
1650,
1675,
1723,
1869,
2019,
2055,
2089,
2187,
2171,
2417,
2471,
2431,
2508,
2561,
2604,
2610,
2716,
2749,
2876,
2864,
2885,
3063,
3046,
3063,
3057,
3143,
3113,
3068,
3202,
3260,
3243,
3337,
3264,
3202,
3374,
3493,
3436,
3413,
3474,
3500,
3538,
3532,
3617,
3678,
3794,
3790,
3899,
4091,
4326,
4586,
4695,
4843,
4969,
5174,
5187,
5285,
5156,
5290,
5346,
5297,
6223,
10306,
23636,
59547,
136011,
256907,
404538,
520166,
548252,
472775,
335958,
200949,
107168,
57407,
35661,
25695,
17784,
11127,
6391,
3510,
1916,
1402,
1121,
1027,
995,
896,
926,
885,
885,
826,
821,
875,
827,
839,
844,
846,
913,
870,
894,
900,
892,
894,
882,
921,
942,
981,
967,
993,
957,
981,
959,
921,
958,
932,
983,
980,
957,
973,
937,
903,
974,
963,
955,
965,
1021,
928,
962,
1026,
1015,
996,
962,
943,
1007,
959,
910,
972,
1031,
940,
931,
949,
962,
988,
1002,
974,
984,
989,
967,
969,
1019,
997,
974,
957,
935,
983,
959,
996,
959,
994,
1004,
938,
950,
960,
954,
964,
922,
957,
990,
944,
971,
930,
966,
969,
922,
898,
910,
915,
902,
910,
900,
897,
893,
903,
895,
895,
891,
891,
901,
895,
880,
884,
893,
891,
885,
870,
922,
940,
953,
967,
1000,
952,
933,
950,
941,
922,
929,
890,
911,
937,
886,
906,
935,
890,
901,
903,
850,
823,
851,
905,
873,
866,
852,
881,
843,
828,
874,
831,
813,
808,
840,
810,
839,
864,
749,
809,
769,
826,
791,
827,
769,
815,
790,
792,
774,
799,
777,
761,
817,
838,
797,
790,
805,
822,
800,
799,
738,
747,
805,
731,
744,
709,
744,
718,
731,
774,
701,
739,
714,
702,
771,
729,
698,
714,
743,
699,
720,
707,
703,
703,
719,
685,
687,
713,
710,
674,
714,
709,
688,
656,
613,
684,
671,
624,
653,
672,
676,
634,
649,
638,
651,
664,
635,
652,
618,
613,
618,
628,
625,
633,
616,
597,
617,
605,
605,
612,
605,
606,
604,
593,
583,
575,
559,
547,
584,
578,
565,
600,
612,
599,
597,
587,
530,
559,
562,
586,
540,
587,
552,
555,
604,
604,
576,
528,
529,
543,
545,
559,
571,
555,
553,
534,
523,
524,
558,
505,
563,
552,
522,
479,
502,
514,
514,
513,
555,
494,
514,
504,
505,
519,
529,
538,
475,
487,
484,
481,
530,
500,
480,
484,
496,
508,
491,
494,
476,
487,
486,
445,
486,
454,
437,
440,
459,
404,
451,
480,
446,
463,
395,
417,
441,
439,
453,
443,
453,
443,
429,
455,
434,
420,
419,
415,
424,
448,
433,
445,
439,
435,
419,
401,
392,
429,
420,
439,
424,
422,
419,
448,
385,
402,
384,
394,
407,
405,
397,
422,
383,
400,
369,
383,
384,
399,
384,
380,
377,
388,
408,
349,
403,
355,
415,
411,
354,
379,
383,
381,
390,
351,
391,
375,
385,
376,
374,
324,
372,
330,
360,
342,
385,
340,
362,
332,
364,
345,
387,
318,
348,
335,
356,
350,
291,
323,
372,
338,
324,
313,
367,
309,
293,
346,
325,
316,
336,
309,
309,
332,
295,
352,
359,
337,
319,
291,
308,
328,
361,
316,
347,
305,
322,
315,
317,
320,
314,
324,
310,
322,
280,
278,
297,
325,
272,
319,
295,
288,
297,
299,
295,
282,
294,
315,
271,
287,
281,
246,
285,
283,
280,
282,
277,
281,
259,
292,
275,
269,
295,
283,
267,
291,
245,
285,
271,
276,
284,
283,
268,
245,
284,
284,
234,
276,
263,
283,
255,
275,
220,
303,
274,
235,
207,
229,
241,
258,
258,
262,
264,
229,
259,
253,
247,
231,
217,
222,
232,
251,
228,
234,
225,
260,
229,
266,
235,
216,
249,
240,
213,
242,
208,
243,
228,
201,
223,
241,
215,
227,
202,
198,
197,
207,
215,
217,
226,
216,
241,
219,
228,
204,
198,
215,
193,
206,
199,
204,
198,
207,
199,
221,
194,
205,
204,
188,
223,
196,
191,
191,
190,
190,
196,
202,
164,
206,
185,
170,
204,
205,
174,
195,
185,
166,
208,
171,
168,
173,
188,
200,
193,
161,
177,
160,
174,
193,
154,
175,
195,
185,
177,
171,
179,
181,
170,
175,
152,
162,
173,
174,
196,
158,
162,
151,
169,
157,
178,
169,
161,
162,
163,
163,
182,
164,
154,
185,
165,
169,
142,
162,
157,
168,
148,
148,
151,
165,
149,
161,
165,
124,
144,
158,
119,
151,
137,
142,
162,
155,
137,
156,
134,
134,
130,
131,
139,
115,
140,
122,
145,
138,
154,
156,
129,
150,
135,
128,
133,
135,
121,
131,
152,
106,
128,
122,
140,
115,
135,
117,
116,
106,
112,
140,
119,
124,
95,
129,
131,
123,
121,
111,
122,
134,
116,
116,
117,
116,
137,
129,
94,
107,
96,
114,
104,
118,
116,
123,
105,
105,
98,
117,
108,
98,
98,
122,
117,
92,
123,
116,
114,
99,
114,
107,
104,
95,
122,
86,
91,
107,
110,
91,
108,
99,
88,
104,
97,
104,
102,
110,
102,
108,
102,
107,
82,
107,
86,
92,
84,
88,
96,
92,
94,
97,
93,
91,
92,
76,
83,
90,
81,
89,
85,
101,
85,
74,
88,
97,
89,
93,
77,
92,
88,
85,
78,
87,
78,
69,
76,
75,
77,
66,
58,
93,
81,
90,
80,
71,
76,
79,
80,
86,
71,
70,
75,
76,
84,
82,
81,
76,
65,
88,
74,
79,
62,
88,
73,
69,
72,
71,
75,
72,
65,
55,
67,
61,
54,
68,
70,
57,
62,
64,
58,
62,
59,
63,
57,
68,
53,
74,
53,
46,
51,
56,
58,
68,
55,
60,
65,
54,
60,
56,
52,
53,
58,
57,
54,
65,
40,
53,
50,
64,
62,
47,
45,
66,
50,
54,
58,
59,
46,
56,
51,
60,
54,
66,
52,
53,
46,
46,
68,
48,
49,
46,
50,
40,
50,
53,
51,
38,
43,
47,
53,
45,
44,
35,
50,
52,
38,
42,
47,
34,
40,
51,
52,
44,
38,
44,
31,
43,
33,
37,
44,
47,
50,
36,
34,
36,
48,
34,
45,
34,
20,
28,
36,
40,
39,
44,
42,
37,
43,
34,
48,
27,
32,
34,
33,
34,
28,
40,
32,
33,
25,
38,
32,
41,
34,
32,
47,
26,
34,
31,
23,
30,
25,
24,
37,
33,
41,
32,
28,
18,
24,
24,
22,
22,
27,
33,
39,
24,
24,
21,
22,
24,
14,
29,
33,
25,
29,
28,
25,
26,
35,
26,
39,
22,
22,
22,
26,
34,
24,
18,
13,
20,
23,
15,
21,
27,
21,
24,
28,
19,
25,
21,
16,
22,
22,
24,
21,
31,
23,
12,
19,
20,
24,
14,
21,
17,
20,
18,
19,
21,
18,
18,
25,
17,
17,
16,
15,
17,
21,
19,
18,
14,
19,
18,
13,
14,
15,
16,
16,
16,
14,
16,
8,
16,
15,
13,
16,
12,
16,
11,
16,
11,
18,
27,
18,
19,
7,
15,
8,
11,
15,
10,
8,
10,
7,
10,
10,
12,
11,
11,
15,
7,
15,
9,
5,
15,
16,
12,
10,
11,
9,
11,
10,
13,
10,
8,
8,
12,
8,
8,
12,
11,
9,
7,
15,
9,
9,
8,
14,
16,
12,
14,
5,
7,
7,
12,
11,
4,
12,
7,
12,
5,
7,
6,
8,
2,
4,
4,
5,
10,
7,
4,
11,
6,
10,
5,
10,
4,
4,
9,
3,
5,
2,
6,
5,
2,
8,
9,
3,
5,
8,
8,
3,
7,
6,
4,
6,
6,
2,
6,
2,
8,
6,
6,
8,
4,
4,
2,
1,
6,
1,
3,
4,
3,
2,
3,
4,
1,
2,
2,
5,
2,
3,
4,
4,
0,
3,
6,
3,
0,
2,
1,
2,
3,
2,
4,
2,
3,
4,
0,
2,
1,
1,
1,
1,
4,
5,
3,
1,
0,
1,
0,
3,
1,
3,
0,
0,
1,
4,
4,
1,
2,
0,
0,
2,
2,
4,
1,
0,
1,
0,
2,
0,
1,
2,
2,
3,
1,
1,
0,
3,
0,
0,
0,
#ENDOFDATA   :