File: data/exp_raw/ADM6005a spectra/SiO2 std.msa
#FORMAT      : EMSA/MAS Spectral Data File
#VERSION     : 1.0
#TITLE       : Bruker Nano spectrum Acquisition
#DATE        : 12-JUL-2019
#TIME        : 10:45
#OWNER       : Bruker Nano
#NPOINTS     : 4096
#NCOLUMNS    : 1
#XUNITS      : eV
#YUNITS      : counts
#DATATYPE    : Y
#XPERCHAN    : 5.01623
#OFFSET      : -484.154
#BEAMKV      : 20
#SIGNALTYPE  : EDS
#ELEVANGLE   : 40
#AZIMANGLE   : 45
#LIVETIME    : 100
#REALTIME    : 113.037
#PROBECUR    : 5
#TAUWIND     : 0
#TDEADLYR    : 0
#TACTLYR     : 0.045
#TALWIND     : 0.004
#CHOFFSET    : 0.0
#XLABEL      : Energy (eV)
#YLABEL      : Counts
#EDSDET      : SDUTW
##D2STDCMP   : SiO2,(O:53.2565),(Si:46.7435),2.63
##DET_HASH   : c6370f9e-cc72-7559-f57e-203d75c8942b
##CALIB_HASH : 54ef92dd-c85a-cbea-898e-ee7ceef4355d
##SAMPLE     : <BulkSample id="1">\n<mOrientation id="2">\n<double>0.0</double>\n<double>0.0</double>\n<double>-1.0</double>\n</mOrientation>\n</BulkSample>
#SPECTRUM    :
0,
0,
0,
0,
0,
0,
0,
0,
0,
0,
0,
0,
0,
0,
0,
0,
0,
0,
1,
1,
4,
7,
6,
9,
12,
9,
9,
133,
1620,
12620,
52392,
120573,
148030,
97172,
34571,
6783,
754,
80,
11,
0,
23,
276,
248,
207,
237,
252,
331,
529,
1101,
1984,
2733,
2533,
1636,
821,
444,
374,
430,
493,
518,
613,
805,
1195,
2295,
5958,
15810,
34348,
55393,
62281,
49129,
26751,
10105,
2959,
918,
507,
499,
568,
617,
648,
705,
657,
671,
667,
716,
749,
756,
802,
862,
896,
959,
1004,
1002,
991,
1026,
1048,
1079,
1120,
1162,
1225,
1281,
1277,
1358,
1368,
1379,
1382,
1433,
1471,
1510,
1544,
1564,
1550,
1604,
1656,
1680,
1634,
1696,
1693,
1741,
1824,
1831,
1901,
1861,
1939,
1938,
1958,
2036,
2052,
2218,
2222,
2240,
2402,
2471,
2561,
2654,
2704,
2700,
2655,
2772,
2783,
2816,
2725,
3035,
4435,
9552,
23160,
52572,
100480,
159117,
207394,
220755,
192967,
138720,
84635,
44921,
24059,
14031,
9741,
6596,
4278,
2634,
1826,
1247,
1053,
981,
982,
984,
981,
972,
948,
948,
959,
943,
946,
964,
970,
1045,
1009,
1058,
1091,
1083,
1112,
1089,
1040,
1024,
1029,
1012,
1008,
1034,
1054,
1010,
1028,
1039,
1025,
1000,
1001,
998,
987,
1012,
963,
1037,
982,
990,
993,
990,
984,
924,
998,
1020,
990,
1021,
937,
984,
999,
985,
979,
1010,
1000,
987,
952,
989,
980,
927,
1000,
968,
960,
954,
939,
939,
945,
939,
936,
913,
945,
903,
927,
948,
910,
905,
923,
925,
940,
955,
898,
870,
896,
878,
898,
880,
878,
896,
930,
897,
858,
898,
825,
866,
887,
829,
815,
830,
823,
831,
800,
828,
825,
800,
802,
794,
801,
770,
784,
782,
802,
792,
834,
829,
865,
914,
935,
922,
883,
879,
882,
807,
801,
774,
770,
793,
760,
749,
770,
741,
734,
736,
752,
733,
717,
715,
719,
694,
687,
742,
718,
739,
740,
729,
698,
684,
675,
718,
694,
675,
652,
665,
733,
700,
656,
691,
636,
686,
729,
678,
635,
646,
673,
669,
686,
686,
617,
645,
635,
655,
654,
692,
655,
665,
636,
676,
646,
648,
599,
595,
622,
632,
608,
628,
592,
587,
576,
623,
612,
568,
577,
550,
535,
548,
590,
552,
567,
593,
566,
550,
580,
546,
576,
539,
531,
567,
530,
534,
558,
521,
541,
559,
506,
523,
573,
549,
531,
528,
518,
480,
530,
501,
487,
508,
557,
533,
488,
510,
477,
495,
485,
454,
516,
455,
473,
483,
449,
460,
501,
458,
426,
512,
474,
457,
507,
466,
457,
465,
463,
477,
478,
402,
409,
464,
436,
467,
435,
457,
402,
440,
446,
452,
447,
405,
413,
415,
405,
396,
425,
432,
456,
391,
425,
422,
424,
425,
352,
402,
401,
405,
435,
357,
405,
367,
377,
380,
390,
411,
375,
400,
389,
399,
366,
396,
387,
347,
310,
394,
371,
379,
377,
357,
365,
379,
363,
364,
372,
360,
371,
387,
344,
372,
373,
345,
359,
385,
351,
342,
321,
403,
351,
352,
325,
356,
345,
326,
338,
364,
334,
289,
340,
360,
316,
315,
300,
333,
299,
350,
339,
324,
319,
321,
339,
317,
339,
305,
321,
313,
320,
297,
305,
324,
312,
302,
281,
292,
331,
258,
320,
321,
283,
294,
293,
309,
331,
306,
335,
337,
286,
312,
296,
311,
344,
293,
275,
283,
281,
285,
290,
289,
285,
241,
253,
268,
254,
262,
255,
268,
281,
271,
255,
299,
235,
289,
258,
248,
257,
232,
250,
237,
265,
272,
278,
259,
241,
257,
272,
281,
248,
225,
231,
241,
269,
247,
235,
253,
253,
255,
241,
237,
226,
250,
264,
236,
221,
258,
243,
242,
231,
229,
200,
222,
252,
223,
243,
208,
259,
217,
221,
223,
218,
250,
193,
247,
247,
244,
223,
222,
202,
221,
202,
198,
196,
208,
212,
229,
211,
212,
210,
191,
190,
185,
188,
216,
205,
191,
221,
187,
210,
242,
204,
193,
205,
202,
183,
174,
200,
201,
213,
163,
165,
188,
179,
174,
184,
160,
192,
208,
169,
180,
179,
182,
190,
194,
157,
190,
172,
183,
175,
157,
162,
176,
177,
160,
156,
179,
182,
154,
131,
153,
179,
169,
194,
152,
171,
190,
185,
135,
154,
155,
155,
157,
177,
161,
161,
150,
149,
174,
149,
148,
146,
167,
155,
167,
144,
163,
169,
160,
143,
141,
163,
126,
158,
156,
154,
156,
173,
153,
156,
153,
154,
156,
154,
152,
151,
150,
126,
165,
129,
134,
148,
132,
158,
141,
137,
114,
145,
143,
144,
148,
145,
142,
130,
115,
121,
136,
140,
144,
120,
150,
141,
139,
136,
116,
112,
136,
129,
117,
114,
113,
110,
117,
138,
127,
136,
131,
100,
117,
119,
110,
127,
112,
109,
122,
134,
101,
114,
99,
121,
126,
131,
94,
88,
107,
123,
112,
105,
110,
118,
112,
102,
115,
113,
120,
101,
107,
133,
94,
77,
89,
117,
109,
98,
102,
103,
89,
104,
130,
81,
97,
96,
71,
99,
103,
108,
115,
97,
104,
116,
118,
87,
93,
102,
99,
80,
107,
91,
93,
82,
97,
97,
102,
82,
92,
102,
83,
92,
74,
97,
78,
85,
81,
100,
86,
107,
84,
81,
86,
77,
64,
73,
77,
85,
81,
91,
82,
77,
82,
77,
82,
73,
73,
87,
79,
86,
89,
78,
81,
67,
70,
63,
64,
62,
81,
99,
84,
66,
69,
79,
65,
68,
98,
72,
78,
66,
97,
66,
73,
53,
74,
58,
72,
65,
59,
84,
69,
59,
69,
56,
56,
59,
55,
67,
60,
60,
56,
63,
66,
62,
57,
55,
61,
62,
51,
68,
63,
59,
49,
43,
65,
57,
55,
53,
54,
64,
51,
43,
50,
45,
56,
54,
52,
60,
49,
58,
69,
46,
59,
66,
55,
41,
51,
71,
60,
45,
43,
53,
52,
58,
53,
40,
48,
57,
46,
56,
44,
65,
46,
54,
44,
46,
37,
59,
59,
49,
46,
49,
46,
41,
42,
51,
46,
45,
50,
49,
57,
39,
41,
57,
47,
48,
43,
46,
40,
41,
44,
45,
43,
38,
38,
31,
32,
49,
34,
29,
39,
42,
41,
46,
42,
39,
37,
33,
36,
32,
32,
35,
37,
29,
34,
30,
27,
45,
35,
34,
39,
33,
40,
38,
33,
33,
33,
42,
32,
30,
28,
31,
31,
25,
34,
39,
30,
37,
26,
37,
26,
31,
40,
31,
31,
20,
38,
29,
22,
41,
37,
24,
26,
33,
32,
35,
22,
30,
24,
27,
19,
21,
28,
28,
25,
13,
25,
28,
28,
16,
17,
16,
26,
26,
25,
25,
23,
32,
23,
29,
26,
30,
23,
29,
24,
9,
18,
25,
12,
23,
25,
26,
21,
22,
29,
20,
16,
19,
17,
14,
16,
13,
17,
19,
22,
21,
23,
10,
11,
18,
19,
20,
14,
18,
24,
17,
18,
20,
23,
19,
24,
17,
16,
15,
18,
16,
20,
15,
20,
22,
18,
18,
25,
12,
17,
16,
21,
19,
12,
16,
13,
16,
14,
21,
15,
17,
16,
21,
8,
8,
21,
15,
19,
19,
14,
16,
20,
11,
12,
12,
16,
12,
14,
11,
11,
14,
13,
11,
15,
10,
9,
6,
6,
21,
12,
9,
12,
11,
15,
16,
12,
16,
5,
12,
18,
14,
16,
17,
20,
10,
13,
12,
8,
10,
11,
9,
8,
12,
4,
9,
12,
11,
8,
12,
7,
6,
12,
13,
4,
11,
15,
13,
9,
12,
10,
11,
8,
10,
4,
17,
8,
10,
10,
7,
8,
10,
5,
10,
2,
8,
10,
13,
8,
3,
3,
10,
10,
3,
7,
8,
8,
7,
4,
5,
7,
10,
4,
7,
6,
7,
7,
5,
4,
5,
6,
10,
6,
6,
8,
3,
6,
5,
2,
3,
6,
3,
5,
1,
4,
6,
2,
8,
4,
5,
5,
2,
6,
3,
3,
7,
3,
2,
6,
5,
1,
3,
8,
4,
1,
2,
6,
7,
4,
1,
3,
3,
1,
2,
1,
1,
4,
2,
2,
6,
4,
2,
2,
2,
2,
3,
2,
1,
1,
5,
5,
2,
5,
1,
3,
5,
3,
4,
5,
1,
5,
2,
3,
3,
2,
3,
0,
2,
0,
1,
3,
3,
0,
3,
2,
1,
0,
3,
1,
0,
0,
1,
0,
0,
5,
1,
4,
3,
1,
1,
3,
2,
2,
1,
1,
0,
0,
2,
1,
0,
0,
0,
0,
0,
0,
2,
0,
0,
0,
2,
0,
0,
0,
0,
0,
0,
#ENDOFDATA   :