File: data/exp_raw/ADM6005a spectra/Ti trimmed.msa
#FORMAT      : EMSA/MAS Spectral Data File
#VERSION     : 1.0
#TITLE       : Bruker Nano spectrum Acquisition
#DATE        : 12-JUL-2019
#TIME        : 10:29
#OWNER       : Bruker Nano
#NPOINTS     : 4096
#NCOLUMNS    : 1
#XUNITS      : eV
#YUNITS      : counts
#DATATYPE    : Y
#XPERCHAN    : 5.00558
#OFFSET      : -481.931
#BEAMKV      : 20
#SIGNALTYPE  : EDS
#ELEVANGLE   : 40
#AZIMANGLE   : 180
#LIVETIME    : 100.001
#REALTIME    : 119.087
#PROBECUR    : 5
#TAUWIND     : 0
#TDEADLYR    : 0.00001
#TACTLYR     : 0.045
#TALWIND     : 0.003
#CHOFFSET    : 0.0
#XLABEL      : Energy (eV)
#YLABEL      : Counts
#EDSDET      : SDUTW
##SPECIMEN   : Trimmed[Ti std,196 eV,326 eV]
##D2STDCMP   : Ti,(Ti:100.0),4.5
##DET_HASH   : 787abefa-8318-6950-113a-0b12cd5d2e3f
##CALIB_HASH : bf9d58b5-ed5c-0618-2474-e45ee23fbd69
##SAMPLE     : <BulkSample id="1">\n<mOrientation id="2">\n<double>0.0</double>\n<double>0.0</double>\n<double>-1.0</double>\n</mOrientation>\n</BulkSample>
#SPECTRUM    :
0,
0,
0,
0,
0,
0,
0,
0,
0,
0,
0,
0,
0,
0,
0,
0,
0,
3,
2,
6,
18,
35,
36,
27,
23,
25,
45,
226,
2514,
18696,
75745,
169054,
205057,
134728,
48073,
9648,
1179,
104,
0,
0,
0,
265,
241,
296,
384,
418.653,
515.101,
611.548,
707.996,
804.443,
900.891,
997.3385,
1093.79,
1190.23,
1419,
2701,
5627,
9767,
12669,
12490,
11204,
10509,
9603,
7441,
4341,
2524,
1986,
1853,
1484,
928,
602,
437,
415,
444,
488,
487,
533,
559,
590,
656,
670,
682,
764,
806,
811,
839,
941,
1003,
1074,
1069,
1132,
1160,
1196,
1273,
1275,
1341,
1338,
1393,
1491,
1536,
1584,
1580,
1636,
1691,
1723,
1777,
1805,
1884,
1894,
1882,
1940,
1994,
1996,
2077,
2096,
2195,
2286,
2373,
2468,
2392,
2462,
2416,
2345,
2296,
2297,
2285,
2428,
2436,
2480,
2411,
2436,
2510,
2591,
2478,
2553,
2544,
2446,
2457,
2501,
2566,
2525,
2542,
2585,
2474,
2605,
2785,
2688,
2844,
2944,
2888,
2816,
2736,
2702,
2739,
2674,
2673,
2649,
2700,
2656,
2651,
2557,
2736,
2649,
2625,
2689,
2714,
2673,
2732,
2741,
2686,
2576,
2589,
2674,
2594,
2581,
2682,
2567,
2611,
2627,
2639,
2663,
2643,
2604,
2659,
2690,
2663,
2569,
2604,
2569,
2582,
2589,
2556,
2539,
2488,
2504,
2521,
2580,
2558,
2475,
2503,
2486,
2470,
2463,
2452,
2398,
2446,
2444,
2430,
2461,
2373,
2469,
2310,
2250,
2177,
2210,
2202,
2366,
2538,
2510,
2426,
2442,
2388,
2357,
2264,
2247,
2244,
2256,
2258,
2224,
2194,
2174,
2202,
2161,
2228,
2216,
2147,
2177,
2161,
2168,
2175,
2085,
2051,
2088,
2061,
2189,
2084,
2083,
2081,
2079,
2072,
2075,
1965,
2059,
2046,
1996,
2050,
1983,
1953,
1972,
2020,
1954,
1980,
1969,
1975,
1891,
1967,
1905,
1914,
1879,
1873,
1860,
1929,
1863,
1819,
1909,
1877,
1843,
1944,
1958,
1961,
1969,
1916,
1877,
1822,
1889,
1843,
1810,
1829,
1800,
1891,
1765,
1808,
1743,
1778,
1778,
1787,
1672,
1718,
1706,
1688,
1714,
1676,
1650,
1639,
1593,
1597,
1692,
1609,
1630,
1573,
1648,
1631,
1676,
1694,
1658,
1706,
1750,
1861,
1988,
2067,
2346,
2877,
3892,
6287,
10861,
20017,
35335,
58479,
88519,
123482,
156444,
178829,
186695,
177186,
151872,
119131,
84526,
55325,
32782,
18211,
9645,
5225,
3030,
2260,
1946,
1770,
1706,
1775,
1880,
1986,
2230,
2753,
3433,
4797,
6662,
9547,
12931,
16924,
20307,
22887,
23637,
22501,
19773,
16027,
11971,
8389,
5583,
3613,
2293,
1536,
1118,
973,
833,
871,
802,
778,
857,
834,
800,
808,
805,
881,
782,
833,
828,
834,
824,
854,
809,
843,
807,
803,
784,
822,
811,
851,
833,
831,
770,
846,
718,
786,
835,
740,
772,
806,
767,
808,
764,
740,
781,
748,
706,
784,
737,
795,
783,
807,
798,
765,
767,
732,
806,
764,
772,
752,
800,
812,
710,
737,
743,
760,
763,
832,
741,
747,
736,
791,
722,
766,
710,
777,
685,
752,
765,
700,
745,
716,
667,
701,
727,
709,
706,
724,
736,
740,
762,
835,
764,
728,
783,
707,
750,
664,
715,
678,
648,
630,
650,
730,
639,
642,
678,
659,
662,
713,
696,
693,
615,
642,
669,
655,
631,
687,
654,
636,
635,
680,
653,
621,
630,
657,
644,
618,
600,
640,
633,
589,
627,
618,
643,
657,
657,
629,
599,
654,
553,
621,
592,
559,
596,
615,
570,
597,
608,
592,
591,
572,
604,
610,
570,
601,
629,
611,
589,
584,
592,
630,
614,
609,
644,
586,
588,
592,
578,
613,
574,
579,
532,
557,
535,
565,
545,
583,
547,
526,
566,
536,
552,
537,
512,
540,
547,
559,
498,
522,
543,
534,
541,
552,
542,
526,
549,
645,
506,
525,
538,
544,
524,
506,
524,
528,
515,
489,
554,
514,
514,
475,
491,
485,
507,
506,
547,
520,
488,
517,
491,
467,
522,
511,
460,
505,
511,
482,
500,
473,
500,
482,
451,
453,
469,
502,
472,
531,
470,
492,
447,
448,
469,
486,
473,
472,
429,
494,
478,
436,
449,
459,
447,
482,
453,
430,
405,
407,
421,
418,
415,
409,
433,
398,
423,
400,
408,
402,
407,
419,
393,
398,
412,
404,
380,
415,
401,
447,
453,
419,
410,
437,
350,
399,
402,
386,
381,
385,
392,
396,
398,
381,
373,
382,
402,
369,
388,
392,
383,
405,
390,
378,
396,
390,
403,
376,
422,
398,
367,
391,
372,
399,
380,
390,
351,
370,
365,
366,
403,
362,
372,
373,
365,
387,
352,
393,
358,
335,
368,
311,
353,
367,
375,
340,
354,
372,
376,
326,
359,
333,
350,
353,
320,
282,
361,
344,
327,
336,
307,
347,
330,
342,
340,
352,
311,
341,
307,
291,
335,
325,
339,
329,
313,
318,
318,
339,
321,
332,
342,
353,
307,
317,
279,
297,
324,
319,
329,
315,
312,
286,
306,
309,
275,
316,
309,
279,
304,
296,
290,
280,
293,
259,
276,
265,
259,
290,
304,
269,
296,
311,
271,
291,
242,
260,
270,
274,
299,
278,
261,
249,
278,
272,
283,
233,
262,
279,
256,
266,
296,
214,
219,
258,
270,
280,
242,
268,
268,
232,
256,
248,
269,
276,
253,
266,
248,
253,
255,
234,
272,
276,
245,
247,
236,
243,
234,
214,
212,
237,
231,
236,
209,
219,
222,
224,
221,
237,
249,
243,
235,
233,
202,
234,
218,
234,
202,
224,
215,
213,
203,
193,
235,
201,
186,
231,
205,
237,
223,
204,
197,
208,
216,
188,
208,
202,
189,
184,
201,
203,
205,
202,
191,
182,
226,
195,
206,
204,
208,
197,
182,
171,
189,
179,
197,
179,
169,
194,
208,
188,
182,
141,
179,
178,
162,
146,
179,
169,
215,
172,
179,
172,
176,
173,
195,
171,
185,
172,
166,
161,
184,
151,
160,
146,
162,
169,
131,
153,
145,
164,
151,
173,
161,
160,
154,
166,
146,
145,
134,
148,
135,
164,
157,
166,
154,
147,
146,
151,
128,
122,
160,
136,
133,
152,
134,
116,
151,
138,
141,
126,
134,
124,
144,
141,
122,
124,
107,
143,
123,
123,
137,
145,
132,
140,
127,
134,
134,
126,
126,
133,
136,
117,
110,
119,
135,
117,
111,
112,
121,
115,
131,
103,
101,
98,
140,
114,
115,
97,
136,
130,
138,
119,
117,
108,
112,
103,
116,
107,
107,
123,
111,
96,
101,
95,
96,
103,
105,
95,
105,
115,
109,
120,
111,
82,
87,
89,
89,
107,
102,
114,
104,
82,
100,
93,
97,
80,
83,
108,
86,
99,
104,
103,
93,
106,
87,
91,
93,
100,
81,
89,
94,
69,
95,
106,
84,
87,
87,
87,
62,
87,
83,
78,
79,
69,
75,
83,
84,
83,
78,
79,
87,
81,
73,
91,
73,
63,
61,
73,
83,
62,
74,
72,
74,
71,
74,
89,
63,
68,
77,
63,
69,
69,
79,
77,
73,
65,
62,
56,
51,
61,
69,
63,
51,
67,
65,
64,
57,
51,
56,
74,
52,
63,
69,
53,
56,
62,
50,
63,
53,
63,
63,
40,
57,
61,
47,
56,
62,
44,
61,
55,
54,
49,
67,
41,
43,
58,
70,
36,
56,
47,
37,
57,
48,
68,
62,
27,
50,
52,
45,
50,
45,
35,
52,
56,
39,
55,
60,
48,
35,
43,
40,
47,
31,
44,
38,
39,
37,
35,
45,
46,
41,
31,
45,
42,
26,
43,
47,
34,
32,
47,
33,
38,
39,
34,
29,
26,
35,
23,
29,
35,
39,
25,
38,
19,
24,
36,
34,
38,
37,
34,
30,
31,
34,
24,
20,
32,
27,
22,
30,
32,
35,
38,
31,
26,
21,
20,
28,
33,
29,
27,
24,
33,
31,
13,
23,
27,
19,
30,
12,
23,
24,
31,
27,
25,
30,
16,
26,
25,
15,
27,
18,
22,
15,
17,
15,
17,
15,
21,
28,
28,
21,
20,
20,
19,
22,
19,
23,
14,
14,
12,
22,
13,
20,
19,
18,
23,
16,
26,
13,
21,
16,
14,
17,
10,
13,
13,
14,
18,
18,
17,
13,
13,
17,
10,
20,
13,
18,
6,
12,
8,
9,
16,
13,
19,
18,
16,
12,
12,
9,
14,
9,
12,
14,
14,
9,
13,
17,
10,
7,
12,
10,
5,
7,
9,
4,
10,
6,
5,
10,
7,
9,
11,
7,
7,
6,
2,
1,
2,
12,
1,
3,
4,
5,
8,
6,
3,
4,
6,
6,
9,
6,
6,
3,
4,
7,
9,
3,
8,
3,
7,
5,
5,
3,
3,
7,
5,
4,
0,
4,
5,
2,
1,
6,
4,
3,
4,
2,
2,
1,
2,
5,
5,
0,
1,
2,
1,
2,
0,
1,
2,
0,
0,
2,
1,
0,
4,
0,
0,
0,
0,
0,
0,
#ENDOFDATA   :