File: data/exp_raw/ADM6005a spectra/Zn std.msa
#FORMAT      : EMSA/MAS Spectral Data File
#VERSION     : 1.0
#TITLE       : Bruker Nano spectrum Acquisition
#DATE        : 12-JUL-2019
#TIME        : 10:14
#OWNER       : Bruker Nano
#NPOINTS     : 4096
#NCOLUMNS    : 1
#XUNITS      : eV
#YUNITS      : counts
#DATATYPE    : Y
#XPERCHAN    : 5.01623
#OFFSET      : -484.154
#BEAMKV      : 20
#SIGNALTYPE  : EDS
#ELEVANGLE   : 40
#AZIMANGLE   : 45
#LIVETIME    : 100.002
#REALTIME    : 123.72
#PROBECUR    : 5
#TAUWIND     : 0
#TDEADLYR    : 0
#TACTLYR     : 0.045
#TALWIND     : 0.004
#CHOFFSET    : 0.0
#XLABEL      : Energy (eV)
#YLABEL      : Counts
#EDSDET      : SDUTW
##D2STDCMP   : Zn,(Zn:100.0),7.14
##DET_HASH   : c6370f9e-cc72-7559-f57e-203d75c8942b
##CALIB_HASH : 54ef92dd-c85a-cbea-898e-ee7ceef4355d
##SAMPLE     : <BulkSample id="1">\n<mOrientation id="2">\n<double>0.0</double>\n<double>0.0</double>\n<double>-1.0</double>\n</mOrientation>\n</BulkSample>
#SPECTRUM    :
0,
0,
0,
0,
0,
0,
0,
0,
0,
0,
0,
0,
0,
0,
0,
0,
0,
2,
4,
14,
27,
41,
43,
40,
38,
38,
56,
294,
3305,
23485,
94464,
209981,
254549,
169039,
60810,
12365,
1586,
200,
32,
0,
76,
626,
526,
534,
576,
607,
714,
1067,
1993,
3412,
4577,
4277,
2831,
1405,
835,
683,
746,
811,
878,
910,
987,
1027,
1206,
1362,
1705,
2170,
2752,
2839,
2662,
2192,
1896,
1800,
2062,
2175,
2361,
2473,
2814,
2891,
3106,
3326,
3464,
3623,
3947,
4188,
4407,
4850,
5749,
7497,
11156,
16466,
22173,
24858,
23807,
20154,
19592,
29920,
63681,
131213,
218503,
286069,
288005,
225537,
138245,
67416,
27288,
10294,
4873,
3083,
2333,
1882,
1607,
1434,
1406,
1420,
1354,
1336,
1376,
1361,
1361,
1372,
1410,
1397,
1383,
1510,
1447,
1477,
1512,
1530,
1546,
1547,
1680,
1608,
1630,
1661,
1686,
1668,
1677,
1642,
1616,
1676,
1708,
1719,
1740,
1784,
1839,
1968,
2014,
2021,
2121,
2121,
2047,
2041,
1937,
2003,
1958,
2053,
1913,
1886,
1862,
1922,
1829,
1876,
1889,
1961,
2017,
2035,
2019,
1959,
2049,
2106,
2157,
2143,
2158,
2201,
2296,
2287,
2283,
2287,
2171,
2286,
2193,
2318,
2297,
2328,
2331,
2399,
2336,
2440,
2442,
2369,
2351,
2424,
2377,
2306,
2336,
2328,
2364,
2389,
2373,
2288,
2317,
2470,
2362,
2419,
2334,
2366,
2427,
2475,
2397,
2473,
2433,
2367,
2409,
2407,
2389,
2322,
2337,
2425,
2366,
2391,
2431,
2367,
2364,
2320,
2257,
2384,
2335,
2406,
2311,
2329,
2344,
2354,
2324,
2304,
2318,
2284,
2360,
2296,
2289,
2334,
2300,
2267,
2335,
2293,
2267,
2278,
2304,
2290,
2210,
2255,
2222,
2336,
2262,
2190,
2196,
2211,
2207,
2233,
2174,
2171,
2176,
2236,
2124,
2157,
2118,
2183,
2180,
2140,
2132,
2105,
2086,
2095,
2159,
2133,
2039,
2176,
2112,
2192,
2055,
2109,
2101,
2071,
1930,
2056,
1929,
1987,
1944,
2082,
1955,
1973,
1939,
1969,
1916,
1962,
1949,
1977,
1980,
1938,
1944,
1956,
1992,
1863,
1900,
1956,
1857,
1915,
1954,
1839,
1837,
1829,
1831,
1797,
1770,
1838,
1845,
1808,
1781,
1825,
1848,
1822,
1777,
1804,
1763,
1800,
1785,
1747,
1787,
1829,
1772,
1817,
1859,
1841,
1921,
1780,
1838,
1778,
1765,
1795,
1714,
1655,
1626,
1711,
1618,
1691,
1610,
1608,
1684,
1633,
1609,
1670,
1602,
1560,
1612,
1627,
1504,
1557,
1573,
1568,
1587,
1566,
1585,
1604,
1554,
1533,
1564,
1575,
1483,
1530,
1509,
1441,
1399,
1468,
1538,
1543,
1463,
1443,
1418,
1538,
1467,
1450,
1444,
1453,
1467,
1448,
1382,
1429,
1435,
1401,
1374,
1362,
1355,
1443,
1381,
1436,
1329,
1367,
1315,
1346,
1301,
1375,
1364,
1344,
1323,
1305,
1427,
1304,
1290,
1349,
1266,
1279,
1303,
1243,
1253,
1236,
1260,
1286,
1281,
1258,
1267,
1311,
1203,
1237,
1221,
1282,
1224,
1249,
1270,
1187,
1238,
1195,
1213,
1244,
1186,
1187,
1228,
1176,
1182,
1135,
1199,
1206,
1170,
1155,
1092,
1130,
1120,
1157,
1186,
1138,
1063,
1146,
1112,
1126,
1150,
1126,
1084,
1130,
1117,
1127,
1128,
1122,
994,
1077,
1116,
1137,
1060,
976,
1074,
1108,
1100,
1031,
1038,
1060,
1084,
1039,
1030,
1053,
1009,
1086,
1076,
972,
1006,
1013,
1015,
1035,
1007,
1072,
989,
965,
988,
997,
959,
983,
993,
981,
1038,
1011,
943,
997,
955,
966,
967,
983,
967,
968,
997,
915,
953,
940,
943,
964,
885,
893,
915,
968,
870,
938,
886,
914,
904,
887,
933,
1018,
953,
992,
982,
1029,
1129,
1050,
1038,
1069,
1045,
1050,
1036,
947,
927,
892,
940,
875,
893,
840,
847,
801,
827,
877,
879,
804,
824,
819,
793,
838,
819,
825,
820,
837,
830,
778,
786,
765,
765,
764,
855,
770,
799,
824,
800,
750,
777,
820,
743,
744,
837,
785,
773,
798,
839,
777,
777,
823,
794,
849,
854,
849,
826,
787,
831,
907,
824,
882,
891,
884,
928,
989,
1243,
1532,
1960,
2939,
4443,
6670,
9447,
13454,
18743,
24370,
29771,
35286,
39420,
41673,
41520,
39465,
36287,
30839,
25532,
19480,
14546,
10326,
6877,
4652,
2965,
2053,
1438,
1082,
912,
830,
791,
699,
675,
719,
674,
667,
671,
666,
710,
665,
659,
664,
640,
658,
614,
674,
658,
603,
697,
626,
662,
595,
634,
656,
697,
625,
671,
637,
694,
679,
682,
683,
771,
766,
843,
951,
1129,
1317,
1745,
2254,
2738,
3347,
4111,
4631,
5240,
5565,
5669,
5619,
5293,
4692,
4076,
3336,
2784,
2238,
1783,
1391,
1080,
875,
791,
631,
564,
546,
447,
481,
512,
420,
490,
466,
456,
424,
503,
457,
436,
424,
481,
421,
440,
473,
444,
435,
437,
477,
435,
405,
426,
477,
445,
434,
437,
435,
400,
458,
448,
406,
404,
428,
412,
432,
412,
411,
458,
445,
438,
445,
421,
397,
398,
394,
379,
373,
380,
387,
412,
384,
397,
393,
411,
389,
412,
376,
420,
381,
402,
412,
396,
393,
358,
402,
382,
380,
406,
412,
382,
370,
399,
416,
375,
421,
390,
383,
399,
367,
444,
352,
344,
367,
351,
390,
403,
380,
361,
322,
343,
406,
361,
334,
351,
324,
303,
374,
341,
352,
331,
329,
352,
343,
360,
350,
360,
326,
353,
364,
353,
352,
330,
330,
334,
327,
349,
348,
308,
330,
357,
284,
317,
305,
318,
340,
292,
314,
342,
332,
309,
331,
308,
294,
342,
334,
317,
296,
263,
310,
300,
324,
296,
286,
275,
297,
319,
316,
291,
320,
295,
284,
285,
306,
271,
300,
295,
284,
280,
283,
259,
250,
288,
262,
269,
322,
276,
261,
270,
268,
298,
245,
262,
265,
262,
219,
250,
274,
266,
245,
275,
255,
241,
249,
255,
258,
269,
257,
272,
251,
236,
276,
262,
236,
265,
251,
257,
200,
222,
248,
218,
245,
241,
260,
237,
215,
252,
237,
272,
226,
204,
232,
248,
212,
199,
243,
216,
244,
240,
238,
200,
233,
242,
192,
220,
201,
206,
210,
219,
240,
215,
201,
210,
173,
226,
196,
186,
207,
181,
199,
207,
206,
205,
204,
194,
191,
196,
186,
171,
195,
171,
202,
207,
185,
202,
191,
203,
195,
185,
148,
178,
177,
185,
186,
172,
184,
178,
188,
185,
173,
175,
164,
162,
164,
196,
167,
160,
159,
177,
176,
165,
164,
160,
169,
172,
166,
174,
143,
172,
161,
145,
170,
165,
182,
162,
168,
152,
164,
139,
138,
156,
136,
162,
156,
152,
148,
149,
151,
158,
182,
162,
131,
123,
152,
138,
162,
146,
144,
140,
125,
132,
139,
140,
131,
162,
149,
133,
141,
113,
148,
116,
140,
125,
130,
137,
133,
127,
98,
121,
142,
125,
131,
137,
143,
117,
108,
117,
118,
118,
112,
114,
115,
129,
108,
130,
130,
114,
112,
122,
118,
119,
95,
123,
105,
118,
120,
102,
120,
97,
100,
112,
97,
112,
109,
118,
103,
108,
106,
81,
103,
93,
98,
89,
89,
101,
99,
84,
90,
106,
82,
91,
92,
92,
112,
106,
95,
75,
94,
102,
83,
83,
85,
100,
105,
69,
84,
101,
86,
76,
80,
78,
87,
81,
69,
70,
89,
79,
75,
68,
76,
87,
83,
76,
82,
72,
74,
75,
79,
60,
66,
72,
63,
81,
72,
86,
68,
63,
53,
76,
89,
79,
72,
56,
65,
79,
77,
68,
81,
60,
63,
75,
73,
80,
71,
59,
68,
61,
63,
67,
53,
61,
65,
53,
74,
62,
52,
64,
72,
58,
67,
67,
61,
55,
58,
46,
60,
50,
53,
46,
54,
45,
55,
55,
50,
60,
50,
57,
45,
59,
51,
44,
51,
49,
46,
49,
43,
38,
37,
46,
44,
40,
41,
35,
32,
32,
39,
31,
39,
36,
35,
44,
36,
43,
37,
40,
40,
38,
35,
42,
41,
36,
40,
37,
38,
35,
41,
30,
39,
36,
35,
28,
36,
38,
32,
35,
32,
32,
23,
33,
49,
27,
28,
27,
24,
25,
23,
24,
16,
37,
23,
26,
16,
36,
23,
23,
19,
25,
20,
21,
19,
20,
24,
17,
23,
14,
17,
18,
19,
17,
14,
12,
25,
16,
16,
22,
16,
13,
19,
15,
25,
15,
15,
22,
17,
20,
12,
20,
15,
15,
20,
24,
19,
13,
20,
17,
18,
6,
15,
24,
17,
15,
25,
15,
15,
17,
18,
19,
16,
10,
15,
14,
13,
12,
7,
11,
13,
9,
13,
9,
11,
18,
12,
4,
10,
8,
7,
9,
8,
7,
8,
10,
3,
2,
5,
5,
8,
7,
7,
6,
7,
6,
10,
8,
2,
8,
5,
3,
6,
0,
5,
6,
1,
8,
8,
9,
5,
7,
5,
7,
4,
10,
4,
4,
4,
1,
7,
2,
4,
0,
2,
2,
0,
2,
3,
3,
0,
1,
0,
0,
0,
1,
0,
#ENDOFDATA   :